THUMB,INDEX,MIDDLE,RING,LITTLE,ACCEL_X,ACCEL_Y,ACCEL_Z,GYRO_X,GYRO_Y,GYRO_Z,RESULT
223,147,4,2,16,-1.17,7.94,-4.49,-0.01,0.04,0.05,A
221,147,3,2,16,-1.18,7.99,-4.41,-0.04,-0.05,0.05,A
222,146,4,3,16,-0.91,8.09,-4.49,-0.04,-0.04,0.04,A
223,146,3,2,16,-0.90,8.08,-4.36,-0.04,-0.04,0.01,A
222,147,3,4,16,-0.91,8.08,-4.46,-0.10,-0.02,-0.04,A
222,147,4,2,18,-1.03,8.29,-4.18,-0.17,-0.03,-0.01,A
222,148,2,2,18,-1.12,8.19,-3.32,-0.34,-0.05,0.07,A
222,149,5,2,16,-1.55,8.54,-3.52,-0.02,-0.11,0.06,A
222,148,3,2,17,-1.08,8.56,-3.38,-0.14,-0.11,0.07,A
222,148,3,2,15,-1.41,8.38,-3.33,0.10,-0.04,0.05,A
222,148,3,0,17,-0.64,8.76,-4.19,0.04,-0.31,0.11,A
223,149,3,2,17,-1.92,8.40,-3.12,-0.21,-0.13,0.12,A
221,149,4,3,17,-0.96,9.21,-1.55,-0.08,-0.54,0.35,A
222,150,5,1,16,-0.86,8.76,-2.28,-0.02,-0.38,0.29,A
221,148,5,2,18,0.08,9.36,-2.93,0.22,-0.26,0.18,A
221,149,5,2,15,0.31,8.98,-3.41,0.07,0.10,0.10,A
222,148,4,2,18,-0.57,7.91,-3.22,0.28,0.65,-0.81,A
221,150,3,1,16,-0.76,9.00,-4.31,-0.18,0.31,0.33,A
221,150,3,2,17,0.23,8.94,-3.63,-0.00,-0.45,-0.07,A
221,151,3,0,16,-0.67,8.59,-3.55,-0.28,-0.49,0.25,A
221,151,3,3,17,0.83,8.97,-3.49,-0.10,-0.67,0.39,A
221,151,4,1,16,0.62,8.54,-2.85,0.24,-0.31,0.07,A
221,151,4,3,17,0.56,8.97,-3.48,0.04,0.03,0.16,A
222,151,3,3,17,1.03,8.75,-3.59,-0.04,-0.10,-0.05,A
221,151,5,1,18,0.71,8.40,-3.43,-0.02,-0.08,-0.03,A
221,152,5,3,17,0.65,8.22,-3.50,0.26,-0.05,0.15,A
221,152,3,1,17,1.36,8.76,-3.74,0.30,-0.05,0.34,A
221,152,2,1,16,1.41,8.42,-4.95,-0.12,0.13,-0.04,A
221,152,4,1,19,1.60,9.09,-4.58,-0.25,-0.02,-0.38,A
221,151,2,2,16,1.58,8.49,-3.94,-0.32,0.03,-0.42,A
221,152,3,1,16,0.08,8.38,-2.71,-0.34,0.20,0.03,A
223,153,4,2,18,-0.09,8.74,-3.21,0.12,-0.12,0.06,A
220,152,3,1,17,-0.49,8.88,-3.12,0.10,-0.34,0.20,A
222,151,4,1,15,0.77,8.93,-2.95,0.08,-0.25,0.23,A
223,152,2,2,17,1.61,9.08,-2.89,-0.14,-0.09,0.24,A
221,152,2,1,17,0.49,8.40,-2.74,0.10,0.44,-0.19,A
222,152,4,1,17,0.92,8.83,-2.94,0.15,0.71,-0.25,A
220,153,2,3,16,1.62,8.75,-4.62,0.04,0.41,0.06,A
222,152,2,0,16,0.58,8.82,-3.40,-0.05,0.03,-0.15,A
221,152,5,1,18,0.88,8.81,-3.39,0.05,-0.17,-0.07,A
221,152,2,1,17,0.64,9.41,-2.87,-0.35,-0.29,-0.29,A
222,152,3,1,17,0.38,8.19,-2.53,-0.33,-0.09,-0.14,A
221,152,3,2,17,-0.46,8.82,-2.29,0.16,-0.06,0.11,A
221,153,3,2,17,0.51,8.40,-3.00,0.27,-0.25,0.43,A
221,153,3,3,17,0.96,8.83,-3.58,0.36,-0.07,0.10,A
220,153,4,2,17,1.52,9.38,-4.36,0.30,-0.22,0.25,A
221,152,2,0,16,0.96,8.52,-3.55,-0.46,-0.28,0.09,A
221,153,4,2,19,2.07,8.26,-2.67,0.10,0.15,-0.20,A
222,154,3,1,17,0.90,8.38,-2.98,0.32,1.05,-0.24,A
221,152,3,0,16,-0.50,8.88,-4.76,0.06,0.46,-0.14,A
220,152,2,1,16,1.34,8.33,-3.96,-0.08,-0.15,-0.13,A
221,153,4,2,17,0.22,7.89,-3.80,-0.12,-0.21,0.04,A
222,154,3,0,17,0.69,8.12,-3.71,0.36,-0.46,0.35,A
222,155,2,2,17,2.07,8.18,-4.61,0.17,0.01,-0.08,A
221,154,2,1,16,0.12,7.88,-5.19,0.06,0.16,-0.24,A
221,154,4,2,19,-0.14,7.68,-5.60,0.04,-0.22,-0.06,A
221,155,3,4,19,0.76,7.78,-4.70,-0.29,-0.13,0.06,A
221,155,3,1,18,0.17,8.21,-4.52,-0.13,0.07,-0.04,A
221,155,1,3,17,0.27,7.95,-4.34,-0.11,-0.05,0.05,A
222,153,4,2,18,0.14,8.46,-4.06,0.01,0.01,0.07,A
221,155,4,2,17,0.68,8.25,-4.38,-0.10,-0.00,0.06,A
222,155,4,1,18,0.34,8.44,-3.83,-0.03,0.03,0.05,A
222,157,3,3,17,0.84,8.37,-4.08,-0.05,-0.01,0.03,A
222,155,3,1,17,0.91,8.36,-4.15,-0.02,0.02,0.04,A
221,155,4,2,15,0.76,8.45,-4.03,-0.02,0.05,0.04,A
221,156,3,3,19,1.03,8.32,-4.12,-0.06,0.02,-0.00,A
222,155,3,2,17,1.17,8.32,-4.06,-0.03,0.00,0.00,A
222,154,3,0,17,0.82,8.47,-4.11,-0.02,0.00,-0.01,A
221,155,4,3,17,0.81,8.35,-4.10,-0.02,-0.02,-0.01,A
220,155,2,1,17,0.86,8.36,-4.07,-0.04,-0.02,-0.01,A
222,157,3,2,17,0.88,8.47,-3.96,-0.01,-0.05,0.03,A
222,155,5,2,17,0.91,8.42,-4.02,-0.01,-0.03,0.03,A
220,155,2,1,16,1.00,8.46,-3.94,-0.04,-0.04,0.01,A
221,154,4,2,17,0.92,8.41,-3.97,-0.05,-0.06,0.03,A
221,155,4,1,17,0.96,8.41,-4.04,-0.04,-0.04,0.00,A
221,154,4,2,18,1.12,8.41,-4.17,-0.03,-0.02,0.00,A
221,155,5,1,17,1.12,8.39,-4.09,-0.03,-0.07,-0.02,A
220,156,2,1,18,1.03,8.33,-3.95,-0.03,-0.02,-0.01,A
152,239,6,5,30,0.55,8.54,-4.60,-0.04,-0.01,0.04,B
152,238,5,5,31,1.00,8.33,-3.80,0.07,-0.07,-0.08,B
153,238,5,4,32,0.60,8.38,-4.05,-0.16,0.14,0.07,B
153,238,4,4,30,0.29,8.60,-4.01,-0.01,0.18,0.14,B
152,238,6,5,32,1.39,8.67,-3.26,-0.16,0.10,-0.08,B
153,238,5,4,31,0.96,8.41,-4.20,0.04,-0.08,0.01,B
152,238,5,5,30,1.18,8.47,-4.15,-0.01,-0.04,-0.03,B
151,238,4,5,32,0.78,8.42,-3.99,-0.02,-0.02,-0.03,B
152,238,5,5,32,0.84,8.42,-3.94,-0.01,-0.06,-0.04,B
153,239,5,4,31,0.92,8.39,-4.00,-0.04,-0.02,0.04,B
152,239,6,6,32,0.67,8.43,-3.98,0.02,-0.03,-0.01,B
151,238,4,5,32,1.11,8.26,-3.96,0.07,-0.08,-0.01,B
152,238,6,5,30,0.22,8.18,-4.31,0.09,0.08,0.07,B
152,239,4,5,31,0.77,8.13,-4.52,0.10,0.02,-0.03,B
153,238,4,5,31,0.60,8.12,-4.69,0.05,-0.02,-0.02,B
153,238,5,5,32,0.57,8.09,-4.81,-0.02,-0.04,-0.07,B
151,239,6,5,32,0.38,8.02,-4.85,0.04,0.01,-0.04,B
148,238,4,4,30,0.21,8.13,-4.72,-0.09,-0.22,0.08,B
148,238,6,4,30,0.56,8.09,-4.58,-0.23,-0.08,-0.07,B
147,239,7,7,31,0.46,8.12,-4.48,0.07,-0.18,0.07,B
148,238,5,6,30,-0.44,7.79,-4.86,0.02,-0.12,-0.02,B
148,238,4,5,30,0.08,8.06,-4.70,-0.02,-0.01,0.03,B
149,239,6,5,30,-0.01,7.96,-4.79,-0.10,0.03,0.03,B
149,239,5,6,32,0.04,8.06,-4.64,-0.06,-0.01,0.02,B
150,238,5,4,30,-0.16,7.96,-4.74,-0.02,-0.07,0.02,B
150,238,4,5,29,-0.10,7.95,-5.00,0.03,-0.05,-0.00,B
150,238,4,4,30,0.07,8.60,-4.22,-0.19,-0.11,0.03,B
150,237,6,6,30,-0.07,7.95,-4.10,-0.09,-0.09,-0.06,B
150,237,4,5,30,-0.13,8.20,-4.20,-0.06,-0.04,0.11,B
152,238,6,6,30,-0.13,8.16,-4.21,-0.05,-0.01,-0.05,B
150,238,5,6,31,0.23,8.30,-4.03,0.00,0.01,-0.00,B
151,238,5,4,29,-0.18,8.37,-4.26,-0.02,0.02,-0.01,B
151,238,5,6,31,0.11,8.24,-4.15,0.02,0.03,-0.03,B
150,238,5,5,31,0.19,8.17,-4.20,0.02,0.18,-0.19,B
151,239,6,6,31,-0.22,8.29,-4.41,-0.02,0.33,0.01,B
152,238,4,5,30,0.25,8.33,-4.48,0.07,0.09,0.00,B
151,238,4,5,30,0.39,8.17,-4.63,0.01,-0.12,0.06,B
152,237,5,6,31,0.78,8.13,-4.24,-0.02,-0.03,-0.03,B
152,239,5,6,30,0.40,8.10,-4.60,-0.02,0.00,0.05,B
152,238,5,6,32,0.37,8.05,-4.40,-0.00,-0.05,-0.04,B
153,238,6,4,32,0.36,8.01,-4.56,-0.02,-0.01,-0.02,B
152,238,5,5,30,0.17,8.14,-4.69,-0.02,-0.08,0.02,B
152,238,6,5,33,0.23,8.22,-4.52,-0.11,-0.20,0.06,B
151,238,4,6,30,0.38,8.09,-4.12,-0.09,-0.17,0.04,B
152,238,6,6,30,0.13,8.41,-4.27,-0.01,-0.08,0.09,B
151,239,5,5,31,0.12,8.26,-4.20,-0.05,-0.01,-0.04,B
152,238,4,6,30,0.17,8.37,-4.31,0.00,0.00,-0.02,B
153,239,6,6,31,0.14,8.52,-4.27,-0.11,-0.03,-0.03,B
152,238,4,6,29,0.01,8.55,-3.82,-0.17,0.01,-0.10,B
152,237,5,5,31,-0.14,8.53,-3.61,-0.11,0.02,-0.05,B
153,238,6,5,32,-0.20,8.57,-3.69,0.01,-0.01,-0.03,B
153,239,5,6,30,-0.08,8.59,-3.65,-0.03,0.05,-0.07,B
153,238,6,6,30,-0.25,8.44,-3.66,0.02,0.18,-0.06,B
152,238,4,5,30,-0.10,8.66,-3.92,0.07,0.20,-0.04,B
152,238,5,5,30,-0.40,8.42,-4.18,0.06,0.08,-0.02,B
153,239,6,5,31,-0.03,8.42,-4.02,0.00,0.06,-0.01,B
153,238,3,6,30,0.02,8.37,-4.00,-0.01,-0.01,0.02,B
153,238,5,5,32,-0.10,8.31,-4.18,0.01,-0.11,0.10,B
152,239,5,6,31,0.08,8.27,-4.17,0.06,-0.17,0.09,B
153,238,4,5,32,0.16,8.16,-4.52,0.11,-0.17,0.07,B
152,238,4,5,30,0.30,8.09,-4.60,0.13,-0.14,0.02,B
153,237,5,5,32,0.01,8.14,-4.75,-0.04,-0.03,0.07,B
153,239,5,4,31,0.00,8.13,-4.52,-0.02,-0.02,-0.01,B
153,238,5,5,31,-0.07,8.31,-4.59,-0.14,0.00,-0.01,B
154,238,7,6,32,0.03,8.08,-4.19,-0.10,-0.04,0.02,B
154,238,5,7,32,0.06,8.39,-4.15,0.00,0.07,-0.04,B
153,238,3,5,31,0.11,8.28,-3.96,-0.03,0.09,-0.05,B
211,217,3,7,42,-3.65,5.78,-5.83,0.16,0.33,0.18,C
213,216,4,5,28,-3.09,5.63,-6.26,-0.00,-0.02,0.00,C
213,215,4,5,32,-3.01,5.82,-5.93,0.12,0.01,0.05,C
213,215,5,4,28,-2.96,5.58,-6.36,0.01,-0.00,0.04,C
213,215,5,6,31,-2.90,5.67,-6.17,-0.00,-0.03,-0.02,C
212,215,4,5,28,-3.80,6.03,-6.18,-0.02,0.21,0.05,C
212,215,4,4,123,-2.42,5.59,-6.18,-0.07,-0.22,0.21,C
212,217,5,5,44,-2.66,6.33,-5.49,-0.57,0.66,0.32,C
213,217,4,5,28,-2.02,7.35,-5.45,0.01,0.06,0.33,C
211,215,4,5,28,-2.25,6.71,-6.10,0.06,-0.19,-0.05,C
212,219,4,5,54,-2.35,6.20,-6.19,0.24,0.04,0.03,C
212,216,5,6,29,-2.33,5.95,-6.81,0.08,-0.11,0.08,C
213,214,4,6,29,-1.53,6.53,-5.91,0.04,0.17,0.02,C
213,215,4,5,28,-1.78,5.89,-6.72,0.12,-0.01,-0.04,C
212,212,3,7,26,-2.00,6.14,-6.39,-0.27,-0.09,0.04,C
213,211,5,6,32,-1.78,6.35,-6.21,-0.10,-0.10,-0.01,C
214,211,6,3,26,-1.97,6.31,-6.31,-0.01,-0.11,-0.05,C
213,210,5,5,29,-1.50,6.38,-6.11,-0.01,-0.00,0.02,C
213,211,4,6,26,-1.64,6.18,-6.43,-0.06,0.05,0.01,C
210,211,5,3,28,-1.69,6.13,-6.35,0.04,-0.00,-0.02,C
211,210,3,4,27,-1.72,6.24,-6.36,0.00,0.05,0.01,C
210,210,2,5,28,-1.56,6.25,-6.22,-0.03,-0.01,-0.00,C
210,210,4,5,27,-1.57,6.18,-6.41,0.04,0.04,0.00,C
210,211,4,5,27,-1.74,6.18,-6.40,-0.04,-0.04,-0.00,C
211,211,3,4,26,-1.58,6.27,-6.32,-0.02,-0.07,0.02,C
210,210,3,5,27,-1.76,6.17,-6.42,-0.03,-0.03,0.01,C
211,208,4,4,27,-1.41,6.26,-6.39,-0.00,-0.03,0.02,C
210,210,4,5,26,-1.53,6.24,-6.27,-0.02,-0.01,-0.01,C
211,211,5,4,27,-1.50,6.24,-6.26,-0.01,0.01,0.03,C
211,212,3,5,26,-1.41,6.22,-6.32,-0.04,-0.01,0.02,C
212,211,6,3,26,-1.59,6.20,-6.30,0.02,0.01,0.00,C
210,211,4,5,28,-1.59,6.22,-6.35,0.01,-0.06,-0.06,C
210,212,3,6,27,-1.35,6.21,-6.33,-0.04,-0.02,0.00,C
211,210,4,4,27,-1.45,6.14,-6.49,0.01,-0.06,0.01,C
213,211,5,5,28,-1.61,6.17,-6.50,-0.00,-0.03,0.00,C
212,210,4,4,26,-1.58,6.24,-6.38,-0.02,-0.02,0.01,C
211,212,3,5,26,-1.62,6.11,-6.46,-0.03,-0.07,0.00,C
212,211,6,6,28,-1.56,6.18,-6.42,-0.05,-0.04,0.02,C
214,211,2,5,26,-1.49,6.16,-6.43,-0.03,-0.03,0.04,C
210,213,3,7,27,-1.40,6.28,-6.28,-0.03,0.01,0.01,C
211,210,4,4,27,-1.58,6.19,-6.45,-0.02,-0.03,0.00,C
211,210,3,5,26,-1.53,6.28,-6.33,0.04,-0.03,0.04,C
212,211,5,5,25,-1.55,6.13,-6.44,0.02,-0.04,0.03,C
212,211,4,5,26,-1.53,6.16,-6.48,-0.02,-0.01,0.01,C
211,212,4,5,26,-1.61,6.15,-6.43,-0.03,-0.02,0.02,C
211,211,3,6,26,-1.45,6.14,-6.61,-0.01,-0.03,0.02,C
211,211,4,6,27,-1.46,6.13,-6.40,-0.02,-0.03,-0.01,C
213,211,4,3,26,-1.49,6.11,-6.52,0.00,0.03,-0.00,C
212,210,5,6,27,-1.59,6.22,-6.39,-0.03,-0.01,0.00,C
209,214,5,7,27,-1.48,6.11,-6.35,0.01,-0.01,0.01,C
212,212,5,6,25,-1.54,6.11,-6.50,-0.06,0.02,0.02,C
211,211,3,4,26,-1.44,6.19,-6.41,0.04,-0.02,-0.02,C
213,212,3,5,26,-1.48,6.01,-6.58,-0.04,-0.01,-0.01,C
212,210,4,4,26,-1.27,6.08,-6.45,0.00,0.00,0.01,C
211,212,5,4,26,-1.29,6.05,-6.57,-0.03,-0.01,0.01,C
211,212,3,6,26,-1.42,6.10,-6.47,-0.03,-0.05,0.01,C
212,211,3,3,26,-1.34,6.08,-6.55,-0.02,-0.03,0.01,C
212,211,4,5,26,-1.37,6.13,-6.39,-0.03,-0.00,-0.01,C
210,212,3,5,26,-1.42,6.05,-6.52,-0.02,-0.01,-0.00,C
211,212,3,4,27,-1.47,6.14,-6.34,-0.03,0.04,0.01,C
213,210,6,3,27,-1.43,6.14,-6.52,-0.02,-0.02,0.01,C
212,211,4,5,26,-1.51,6.05,-6.47,-0.01,-0.01,0.02,C
211,209,4,4,25,-1.32,6.10,-6.48,-0.03,-0.07,0.02,C
211,211,3,5,25,-1.30,6.02,-6.50,-0.00,0.01,0.00,C
211,209,3,4,25,-1.44,6.09,-6.54,-0.03,-0.00,0.02,C
211,210,3,7,24,-1.47,6.12,-6.56,-0.04,-0.03,0.01,C
212,208,4,4,25,-1.54,6.09,-6.53,-0.03,-0.01,-0.00,C
211,208,3,4,23,-1.46,6.08,-6.44,-0.04,-0.02,0.00,C
211,208,3,6,24,-1.36,6.08,-6.57,-0.03,-0.01,0.01,C
211,206,4,3,26,-1.42,6.09,-6.40,-0.01,-0.03,0.01,C
211,206,3,6,25,-1.45,6.09,-6.44,-0.03,-0.02,0.01,C
211,206,4,4,24,-1.43,6.11,-6.56,-0.01,-0.01,0.02,C
210,207,4,3,24,-1.54,6.13,-6.51,-0.03,-0.02,0.01,C
209,207,3,4,24,-1.55,6.08,-6.45,-0.03,-0.06,0.01,C
207,208,1,4,25,-1.07,6.08,-6.64,0.02,0.02,0.00,C
206,207,3,4,24,-1.45,6.05,-6.44,-0.02,-0.06,-0.00,C
207,208,5,3,26,-1.54,6.03,-6.55,-0.01,0.01,-0.01,C
208,207,3,7,25,-1.44,6.10,-6.50,0.00,-0.02,0.00,C
207,207,3,4,24,-1.43,6.07,-6.45,-0.03,-0.01,0.00,C
208,207,4,6,23,-1.37,6.13,-6.50,-0.02,-0.01,0.01,C
175,233,3,2,24,0.48,8.14,-4.38,0.03,-0.08,0.05,D
175,234,3,3,24,0.54,8.31,-4.43,0.00,-0.01,0.02,D
175,233,4,3,24,0.55,8.08,-4.47,-0.02,-0.04,0.01,D
176,233,3,4,23,0.77,8.30,-4.41,0.02,0.03,0.03,D
178,233,2,3,24,0.50,8.15,-4.40,0.00,-0.10,0.03,D
177,233,3,5,24,0.78,8.19,-4.49,-0.04,-0.13,0.10,D
177,234,3,3,24,0.58,8.13,-4.54,0.01,-0.15,0.03,D
178,232,3,4,24,0.16,8.05,-4.53,0.03,-0.23,0.11,D
177,234,3,5,24,0.32,8.06,-4.57,-0.04,-0.90,0.34,D
177,233,4,3,26,-1.17,7.68,-4.40,0.50,-0.79,0.77,D
178,232,4,3,24,0.06,7.35,-5.77,0.37,-0.79,0.61,D
178,232,2,3,24,-0.06,7.19,-5.69,0.21,-0.70,0.26,D
178,232,3,4,24,-0.93,6.94,-6.06,-0.03,0.01,-0.03,D
178,233,2,4,22,-0.53,6.89,-5.71,0.05,-0.07,0.05,D
179,233,5,3,24,-1.67,6.74,-5.37,0.13,-0.26,0.29,D
179,232,3,3,24,0.51,6.36,-6.49,0.50,0.15,0.50,D
178,232,3,4,24,0.04,6.49,-6.61,-0.05,0.04,-0.09,D
179,232,2,2,23,0.65,6.24,-6.89,-0.13,1.09,-1.03,D
179,232,3,3,24,-0.13,6.21,-6.51,-0.13,0.93,-0.91,D
179,232,2,4,24,0.66,6.36,-6.38,-0.15,0.35,-0.13,D
179,232,2,3,22,3.63,7.05,-4.77,0.02,3.72,-1.59,D
178,233,2,3,24,3.96,7.24,-4.53,-0.25,-1.00,-0.01,D
179,233,3,5,25,3.58,7.73,-4.02,-0.14,-0.20,0.07,D
179,231,2,3,24,2.29,6.28,-5.74,0.51,-0.10,-0.16,D
179,232,3,4,24,3.89,5.91,-6.76,0.23,0.07,0.16,D
179,232,2,4,22,2.91,6.92,-6.60,-0.34,-0.22,0.28,D
181,232,5,3,24,3.36,6.99,-4.96,-0.10,-0.20,-0.01,D
181,232,2,4,24,3.17,6.58,-5.36,-0.01,0.07,0.04,D
180,231,4,3,25,2.38,6.50,-6.17,0.20,-0.48,0.24,D
180,232,2,3,24,3.75,5.95,-6.48,-0.23,-0.83,0.34,D
180,232,3,3,26,2.70,6.77,-5.23,-0.26,-0.17,0.12,D
180,232,3,3,24,2.72,6.52,-5.91,0.04,-0.15,0.07,D
181,233,3,3,24,1.85,6.04,-6.22,0.13,-0.06,0.32,D
180,233,5,3,23,3.35,6.04,-6.20,0.09,-0.34,0.57,D
181,234,2,4,24,3.69,5.95,-6.58,-0.04,-0.10,0.10,D
182,233,4,3,26,3.10,6.62,-6.63,-0.22,0.29,-0.20,D
181,232,2,3,23,4.23,5.94,-6.02,-0.10,0.59,-0.35,D
181,233,4,3,25,2.98,6.20,-5.41,-0.11,0.06,-0.17,D
181,233,3,5,24,2.87,6.79,-5.83,0.00,0.04,0.16,D
181,233,3,4,24,3.29,7.17,-5.24,0.06,0.10,-0.30,D
182,233,4,3,24,2.92,6.17,-6.22,0.03,0.07,-0.31,D
182,233,2,4,25,3.27,6.11,-5.55,0.13,0.23,0.09,D
181,233,3,3,24,4.07,5.86,-5.64,0.10,-0.29,-0.12,D
182,233,4,3,24,2.77,5.49,-7.41,-0.19,-0.33,-0.03,D
197,247,2,3,20,3.46,6.85,-5.15,0.05,0.16,-0.13,D
197,247,1,2,20,2.95,6.87,-5.50,-0.05,0.02,0.02,D
197,247,3,3,20,3.38,6.96,-5.21,-0.04,-0.01,-0.02,D
196,247,3,3,19,3.39,7.03,-5.20,-0.09,0.01,0.01,D
196,248,3,2,19,3.35,7.09,-5.11,-0.05,-0.04,0.02,D
195,246,3,2,20,3.45,7.11,-5.09,-0.02,-0.01,0.03,D
195,248,3,4,19,3.44,7.09,-5.10,-0.08,-0.06,0.06,D
185,248,2,4,19,3.67,7.29,-4.79,-0.22,0.03,-0.07,D
157,247,1,2,15,3.27,7.74,-4.48,-0.19,0.13,-0.16,D
154,248,1,1,13,3.53,7.67,-4.33,-0.07,-0.01,0.04,D
163,245,2,1,16,3.35,7.55,-4.38,0.16,-0.06,0.08,D
197,243,0,1,16,3.21,7.64,-4.13,-0.23,-0.20,-0.05,D
199,243,2,2,16,3.36,7.31,-4.81,-0.07,0.23,0.07,D
198,243,2,2,16,3.77,7.66,-4.20,-0.14,0.03,-0.05,D
194,243,2,1,16,3.81,7.40,-4.69,-0.05,-0.11,0.04,D
189,242,2,2,17,3.96,7.79,-3.76,-0.19,-0.00,0.08,D
189,241,1,0,16,4.41,7.66,-4.16,0.02,0.06,0.06,D
188,241,1,3,16,3.96,7.37,-4.12,-0.07,-0.20,0.00,D
189,241,1,2,16,4.57,7.60,-4.31,0.03,-0.38,-0.02,D
189,241,1,2,16,4.15,7.64,-4.03,-0.05,-0.06,0.04,D
137,241,1,2,15,3.72,7.70,-4.61,-0.07,-0.34,0.05,D
117,242,2,2,16,4.09,7.20,-4.75,0.08,0.09,-0.08,D
122,242,1,4,15,3.90,7.59,-4.44,-0.06,-0.15,0.03,D
126,241,3,2,15,3.84,7.24,-4.69,0.01,-0.18,0.03,D
155,242,1,1,17,3.58,7.50,-4.61,-0.15,0.78,-0.16,D
156,242,1,2,17,3.56,7.59,-4.50,-0.06,0.06,0.11,D
158,243,2,3,17,3.74,7.65,-4.15,0.06,0.23,-0.03,D
159,244,2,3,18,3.57,7.55,-3.80,0.06,0.08,-0.08,D
160,243,1,3,19,3.63,7.54,-4.13,0.02,0.05,-0.02,D
158,244,2,3,18,3.70,7.61,-4.11,-0.07,-0.07,-0.01,D
161,242,2,3,20,2.96,7.49,-4.70,0.09,-0.06,-0.09,D
161,244,1,2,19,3.22,7.51,-4.77,-0.13,-0.15,-0.00,D
163,244,2,2,18,3.12,7.55,-4.57,-0.05,0.10,-0.01,D
164,244,2,2,19,3.25,7.58,-4.69,0.02,-0.01,0.02,D
163,243,3,3,18,3.06,7.47,-4.70,-0.02,-0.04,-0.02,D
163,245,2,4,19,3.19,7.52,-4.59,-0.01,-0.02,0.02,D
164,243,2,1,18,3.25,7.49,-4.70,-0.02,-0.01,-0.00,D
163,245,3,4,19,3.12,7.60,-4.58,-0.05,-0.00,-0.03,D
164,244,2,3,18,3.18,7.62,-4.62,-0.02,0.02,-0.01,D
162,245,2,2,18,3.09,7.60,-4.62,-0.01,-0.05,0.02,D
162,244,2,2,18,3.22,7.56,-4.66,-0.02,-0.04,0.02,D
163,245,2,2,19,3.25,7.54,-4.51,0.02,-0.07,0.05,D
163,246,3,2,19,3.08,7.52,-4.71,-0.01,-0.05,-0.00,D
164,246,4,2,20,3.14,7.49,-4.69,-0.05,-0.04,-0.00,D
164,246,3,2,19,3.12,7.53,-4.71,-0.05,-0.04,-0.01,D
164,246,1,4,19,3.16,7.58,-4.60,-0.02,-0.01,-0.00,D
163,246,2,4,19,3.15,7.47,-4.72,-0.03,0.06,-0.02,D
163,246,2,3,20,3.33,7.38,-5.01,0.02,0.05,-0.01,D
162,247,2,4,19,3.34,7.33,-4.92,0.02,0.11,-0.03,D
161,246,2,4,19,3.82,7.24,-4.89,-0.02,-0.11,0.04,D
162,246,2,2,19,3.44,7.18,-4.86,-0.05,-0.14,0.01,D
161,245,3,2,19,3.56,7.26,-4.87,-0.07,-0.03,-0.03,D
154,246,4,3,20,3.46,7.26,-4.94,-0.19,-0.26,0.00,D
155,246,4,2,19,3.47,7.32,-4.80,-0.02,-0.08,0.04,D
152,246,3,2,18,3.35,7.38,-4.75,-0.02,-0.04,0.02,D
153,245,3,4,19,3.30,7.35,-4.85,0.01,-0.00,0.01,D
153,246,2,2,19,3.47,7.46,-4.71,-0.03,0.09,-0.00,D
153,246,3,2,19,3.28,7.41,-4.73,-0.01,-0.04,0.02,D
154,247,3,3,18,3.32,7.41,-4.68,-0.03,-0.03,0.00,D
152,245,2,3,18,3.30,7.43,-4.72,-0.03,0.01,0.00,D
155,246,3,2,19,3.49,7.41,-4.75,-0.03,-0.01,-0.00,D
154,246,2,3,20,3.36,7.49,-4.66,-0.04,-0.01,-0.01,D
155,245,2,4,19,3.38,7.52,-4.68,-0.09,0.01,0.01,D
158,244,3,2,19,3.37,7.48,-4.66,-0.05,-0.02,-0.01,D
175,245,4,2,21,3.56,7.57,-4.50,-0.06,-0.06,-0.01,D
189,246,3,1,19,3.23,7.57,-4.54,-0.02,-0.03,0.01,D
189,244,2,2,18,3.24,7.52,-4.53,0.01,-0.02,0.03,D
189,244,2,2,18,3.27,7.65,-4.50,-0.01,-0.01,0.02,D
187,245,3,1,18,3.28,7.53,-4.48,0.02,0.07,0.01,D
189,245,2,4,19,3.28,7.52,-4.54,-0.03,-0.04,0.01,D
189,245,2,2,20,3.33,7.58,-4.56,-0.02,0.01,-0.00,D
188,245,2,3,18,3.38,7.57,-4.44,-0.00,-0.01,0.02,D
180,245,1,2,19,3.34,7.49,-4.59,-0.03,-0.03,-0.00,D
173,246,2,4,19,3.31,7.57,-4.58,-0.08,0.02,-0.01,D
165,246,2,4,19,3.55,7.46,-4.47,0.08,0.12,0.05,D
162,244,2,2,19,3.42,7.49,-4.64,-0.03,0.09,-0.05,D
159,244,2,2,19,3.35,7.52,-4.37,-0.06,-0.15,-0.01,D
160,245,3,3,19,3.55,7.47,-4.53,0.01,-0.03,0.02,D
158,244,3,4,20,3.55,7.52,-4.56,-0.04,-0.18,0.05,D
155,245,2,4,19,3.72,7.43,-4.57,0.00,-0.06,0.01,D
151,244,2,3,20,3.32,7.44,-4.61,-0.01,-0.05,0.02,D
150,243,2,3,20,3.39,7.41,-4.65,-0.04,0.03,-0.02,D
151,245,2,4,19,3.56,7.45,-4.62,-0.02,0.01,-0.01,D
151,244,2,2,20,3.51,7.47,-4.55,-0.03,-0.03,-0.00,D
152,244,2,3,19,3.60,7.43,-4.63,-0.00,-0.04,0.03,D
153,244,3,2,21,3.53,7.45,-4.60,-0.02,-0.02,-0.01,D
154,244,2,3,19,3.53,7.43,-4.61,-0.01,-0.07,0.01,D
154,244,2,4,20,3.46,7.45,-4.65,-0.03,0.01,0.00,D
155,243,3,3,20,3.37,7.45,-4.65,-0.02,0.00,0.01,D
156,244,1,3,21,3.46,7.40,-4.72,-0.04,-0.01,-0.01,D
157,244,2,2,20,3.52,7.49,-4.54,0.01,0.03,-0.00,D
160,243,4,3,22,3.49,7.45,-4.72,-0.03,-0.03,0.01,D
161,243,4,2,22,3.49,7.45,-4.61,-0.01,-0.00,0.01,D
163,243,2,3,20,3.35,7.49,-4.69,-0.06,-0.01,-0.00,D
168,243,4,3,22,3.39,7.49,-4.63,-0.03,-0.04,0.00,D
167,243,2,3,20,3.30,7.47,-4.60,-0.03,-0.05,0.01,D
169,242,2,2,20,3.35,7.44,-4.60,-0.02,-0.00,0.00,D
172,243,4,3,22,3.46,7.49,-4.58,-0.01,-0.03,0.00,D
173,243,4,3,20,3.47,7.47,-4.65,-0.02,0.00,0.00,D
180,243,2,1,20,3.36,7.49,-4.56,-0.03,-0.02,-0.00,D
184,242,2,2,21,3.46,7.51,-4.54,-0.02,0.16,-0.02,D
182,243,2,4,21,3.71,7.55,-4.26,0.01,1.01,-0.16,D
179,243,3,3,20,5.26,7.80,-2.59,0.30,1.98,-0.47,D
176,243,2,3,20,5.29,8.22,-1.36,0.03,0.97,-0.34,D
177,244,3,3,21,4.92,8.40,-0.52,-0.21,-0.35,0.11,D
177,244,4,2,21,5.37,8.29,-0.75,-0.09,-0.06,0.06,D
181,244,4,3,22,5.55,8.17,-0.81,-0.05,-0.17,0.08,D
183,244,3,2,21,5.95,7.97,-0.62,0.05,0.02,0.06,D
188,244,3,4,22,6.12,8.38,-0.51,0.19,0.33,-0.00,D
182,243,5,1,22,5.60,7.97,-1.74,-0.26,-1.58,0.58,D
181,244,3,4,22,5.82,6.97,-3.39,-0.23,-1.65,0.28,D
180,243,4,3,22,4.72,7.50,-4.36,-0.01,0.14,-0.06,D
179,244,3,2,21,4.80,6.55,-4.38,-0.08,-0.25,-0.13,D
179,244,2,2,21,4.38,7.18,-4.55,-0.16,-0.07,0.14,D
177,244,4,2,21,4.46,7.50,-4.07,-0.09,-0.01,0.03,D
177,245,3,4,21,4.34,7.34,-4.02,0.07,-0.08,0.07,D
174,243,4,3,20,4.46,7.19,-4.42,0.01,-0.31,0.08,D
174,245,2,3,20,4.37,7.22,-4.30,-0.02,-0.03,0.06,D
174,245,3,4,21,4.15,7.24,-4.62,-0.03,-0.36,0.12,D
174,244,2,3,21,4.43,7.09,-4.54,-0.10,-0.58,0.25,D
176,243,3,2,21,3.97,6.96,-4.83,-0.01,-0.28,0.10,D
176,243,4,3,22,3.94,6.82,-5.30,-0.06,-0.58,0.26,D
177,244,4,3,21,3.72,6.69,-5.57,-0.05,-0.54,0.20,D
176,245,3,3,21,3.30,6.53,-5.67,0.02,0.01,0.02,D
177,244,3,4,21,3.34,6.58,-5.76,-0.02,0.12,-0.05,D
177,244,3,6,22,3.11,6.65,-5.54,-0.03,-0.10,-0.00,D
178,243,4,3,21,3.46,6.64,-5.56,-0.02,0.04,-0.00,D
177,244,3,4,21,3.25,6.65,-5.45,-0.01,-0.07,0.02,D
177,243,3,3,22,3.49,6.64,-5.66,-0.02,0.08,-0.02,D
177,243,1,3,22,4.02,6.57,-5.57,0.02,0.93,-0.13,D
178,245,3,4,21,4.32,6.66,-5.04,0.00,0.52,-0.09,D
177,244,3,3,21,4.60,6.89,-4.39,0.09,1.17,-0.39,D
178,243,5,3,21,4.94,6.79,-3.91,0.07,0.27,-0.00,D
178,243,4,3,20,4.26,6.56,-4.93,-0.08,-2.71,1.01,D
181,233,3,3,24,3.30,7.53,-5.00,-0.21,0.23,-0.15,D
182,233,2,2,24,2.48,7.21,-5.18,-0.05,0.22,-0.21,D
181,232,1,2,24,2.60,7.03,-5.64,0.06,0.04,0.02,D
182,233,2,4,23,2.87,7.26,-5.38,-0.18,-0.34,0.23,D
182,233,3,3,25,2.93,7.34,-4.89,-0.11,-0.21,0.14,D
182,233,2,5,23,2.80,7.25,-5.10,-0.01,-0.05,-0.03,D
182,233,3,4,24,2.36,7.40,-5.62,-0.03,-0.15,0.09,D
182,233,3,3,25,2.07,7.25,-5.06,-0.11,-0.21,-0.08,D
182,232,3,3,24,2.58,7.17,-5.00,0.01,-0.03,0.05,D
182,233,4,3,24,2.13,7.21,-5.13,-0.00,0.02,0.05,D
182,233,2,3,22,2.32,7.16,-5.38,0.12,-0.01,0.19,D
183,232,3,4,24,3.01,6.97,-5.75,0.08,-0.03,0.16,D
182,232,3,3,23,3.25,6.63,-5.45,0.02,0.02,0.04,D
182,233,2,4,25,3.54,6.76,-5.57,0.07,-0.05,-0.07,D
182,232,2,2,24,2.79,6.50,-5.86,0.05,-0.00,-0.04,D
182,233,3,3,22,3.02,6.67,-5.73,-0.02,-0.00,0.02,D
180,232,2,4,23,3.30,6.69,-5.68,-0.00,0.05,-0.02,D
182,232,3,3,24,3.06,6.55,-5.73,-0.03,0.12,-0.01,D
182,232,2,3,24,3.00,7.06,-5.97,-0.07,-0.01,-0.04,D
181,233,4,3,24,3.22,6.80,-5.12,-0.02,0.01,-0.12,D
181,232,2,4,25,2.65,6.87,-5.39,-0.02,0.14,-0.16,D
182,233,2,5,24,2.85,6.85,-5.66,-0.04,0.06,-0.00,D
180,232,2,4,23,2.66,6.90,-5.72,-0.03,-0.02,0.01,D
183,232,2,2,24,2.51,6.66,-5.68,-0.09,-0.11,0.09,D
182,232,3,3,22,2.60,7.11,-5.35,-0.03,-0.09,0.06,D
181,233,4,3,24,2.57,6.76,-5.58,0.01,-0.03,0.03,D
182,232,3,4,24,2.91,6.95,-5.66,-0.00,-0.07,0.08,D
181,232,4,3,24,2.78,6.95,-5.42,0.01,0.03,-0.09,D
181,232,3,3,24,2.81,6.76,-5.56,-0.06,0.02,-0.00,D
183,231,4,3,25,2.75,6.83,-5.66,0.01,-0.02,0.01,D
142,152,2,1,14,0.28,7.46,-5.29,-0.02,-0.03,0.01,E
142,151,2,3,16,0.34,7.45,-5.39,0.01,0.02,-0.01,E
143,151,1,2,15,0.23,7.50,-5.19,-0.04,-0.02,-0.02,E
143,151,3,2,16,0.31,7.45,-5.45,-0.05,-0.01,0.01,E
143,149,2,1,16,0.35,7.43,-5.46,0.01,-0.05,0.03,E
142,152,2,3,16,0.33,7.60,-5.15,-0.02,-0.05,0.01,E
142,151,2,1,16,0.30,7.56,-5.26,-0.06,-0.03,0.03,E
143,152,2,3,15,0.63,7.47,-5.46,-0.03,-0.09,0.07,E
143,152,1,4,15,0.11,7.41,-5.28,-0.02,-0.32,0.25,E
142,151,2,1,14,-0.11,7.50,-5.28,0.20,-0.80,0.30,E
143,152,1,2,14,-0.25,7.53,-5.24,0.09,-0.49,0.47,E
143,152,1,2,14,-0.09,7.35,-5.42,-0.03,-0.13,0.07,E
144,151,4,2,16,-0.73,7.28,-5.58,-0.01,-0.02,0.00,E
144,152,2,1,14,-0.38,7.46,-5.16,0.02,-0.01,-0.01,E
144,152,1,2,15,-0.68,7.21,-5.50,-0.08,0.04,-0.01,E
144,151,3,2,14,-0.70,7.25,-5.45,0.03,0.06,-0.09,E
145,153,1,3,14,-0.94,7.24,-5.49,0.04,-0.12,-0.13,E
144,151,2,2,15,-0.88,7.16,-5.49,-0.12,0.11,0.08,E
144,153,2,2,16,-0.42,7.24,-5.15,0.15,0.21,-0.21,E
144,151,1,2,13,-0.70,6.67,-6.08,0.03,0.11,0.03,E
144,152,2,2,15,0.17,7.22,-5.65,-0.04,0.16,0.16,E
144,153,2,2,15,0.87,7.21,-6.34,-0.08,0.10,0.09,E
144,151,2,2,15,0.59,7.05,-5.88,-0.08,-0.08,-0.02,E
145,153,1,1,14,0.32,6.94,-6.27,-0.01,-0.10,-0.07,E
145,153,1,3,15,0.20,7.18,-5.77,-0.14,-0.13,-0.12,E
145,152,2,2,15,0.04,7.09,-5.76,-0.16,0.01,0.03,E
144,152,2,2,14,0.11,7.50,-5.03,-0.21,-0.19,-0.04,E
144,152,3,2,15,-0.67,7.40,-5.10,-0.05,-0.14,-0.07,E
145,151,1,2,15,-0.07,7.45,-5.25,-0.08,-0.06,0.07,E
145,153,1,2,15,-0.45,7.62,-4.97,0.01,0.04,-0.01,E
144,153,2,1,15,-0.22,7.34,-5.44,-0.01,0.05,-0.01,E
146,153,3,2,15,0.17,7.67,-4.97,-0.01,-0.04,0.01,E
145,153,1,1,13,0.01,7.76,-5.15,-0.02,0.00,0.06,E
145,154,2,2,16,-0.26,7.64,-5.06,-0.02,-0.02,-0.12,E
145,153,2,1,16,0.02,7.63,-5.25,0.06,0.05,-0.11,E
146,154,2,3,14,-0.86,7.27,-5.18,-0.07,0.08,-0.22,E
145,153,1,2,15,-0.74,7.38,-5.37,-0.01,-0.02,-0.01,E
146,153,3,1,14,-0.52,7.36,-5.10,-0.01,-0.04,-0.03,E
146,154,1,4,15,-1.54,7.10,-5.48,0.22,0.09,-0.40,E
147,152,2,2,15,-1.30,6.79,-6.26,0.08,0.33,0.08,E
145,152,1,2,15,-0.22,7.07,-6.05,0.02,0.06,0.03,E
146,153,2,1,14,-0.70,6.52,-6.04,0.03,-0.04,-0.00,E
147,154,2,3,15,-0.71,6.96,-6.00,-0.11,-0.11,0.09,E
147,154,2,2,14,-0.50,6.79,-5.83,-0.06,-0.14,0.16,E
147,154,1,2,15,-0.04,7.02,-5.75,-0.03,-0.28,0.16,E
146,153,2,1,15,-0.01,6.93,-6.14,0.19,-0.08,-0.03,E
146,154,2,2,16,-0.57,6.89,-6.04,-0.15,0.02,0.18,E
146,154,2,1,16,0.07,7.26,-5.44,-0.05,0.02,0.24,E
147,152,1,2,15,0.02,6.73,-5.80,-0.00,0.10,0.20,E
147,154,1,2,14,0.75,7.77,-6.12,0.03,0.17,0.05,E
147,154,2,2,14,0.74,7.17,-5.54,-0.32,0.42,-0.50,E
147,153,2,1,15,0.39,7.54,-4.72,-0.20,0.44,-0.38,E
147,155,2,1,15,0.90,7.40,-5.21,0.03,0.30,-0.08,E
148,153,1,1,15,0.83,7.58,-5.32,0.03,-0.05,-0.03,E
147,154,2,2,15,0.95,7.50,-5.22,-0.01,-0.05,0.08,E
147,155,2,4,15,0.55,7.49,-4.86,0.13,0.15,0.28,E
146,153,2,1,16,3.28,7.01,-5.52,0.18,0.55,-0.01,E
148,154,3,2,15,2.09,7.23,-5.41,-0.06,-0.03,-0.00,E
148,155,1,2,15,2.39,7.27,-5.26,-0.01,0.02,-0.05,E
148,155,2,2,16,2.35,6.97,-5.50,0.25,0.20,-0.24,E
150,155,3,2,16,2.21,6.88,-5.96,0.09,0.13,-0.05,E
147,155,1,4,16,2.18,6.97,-5.85,-0.01,-0.14,0.01,E
149,154,2,2,16,1.93,6.89,-5.62,-0.14,-0.61,0.30,E
147,154,2,2,14,1.80,7.01,-5.43,-0.09,-0.56,0.39,E
148,154,1,2,15,2.03,6.92,-6.03,-0.04,-0.16,0.17,E
148,155,1,1,16,2.13,6.98,-5.63,-0.00,-0.11,0.02,E
148,156,1,4,15,1.83,6.90,-6.00,-0.02,-0.06,0.02,E
148,155,2,2,14,1.30,6.76,-5.84,-0.13,-0.28,0.02,E
149,155,2,2,16,1.38,6.91,-6.24,-0.07,-0.22,0.07,E
149,156,1,2,14,1.33,7.11,-5.43,-0.12,0.01,0.04,E
148,154,3,2,15,1.04,7.14,-5.63,0.03,0.09,-0.01,E
148,156,2,1,16,1.22,7.15,-5.74,0.10,0.34,-0.05,E
148,154,1,1,15,0.69,7.13,-5.86,0.01,-0.11,-0.00,E
148,155,3,1,15,0.24,7.12,-5.62,0.01,-0.31,0.02,E
149,154,1,2,15,-0.23,7.09,-5.74,0.17,-0.30,-0.01,E
148,155,2,2,14,-0.49,6.68,-6.08,0.11,0.02,-0.10,E
149,154,3,3,15,-0.63,6.37,-6.24,-0.02,-0.10,0.05,E
149,154,1,0,14,-0.73,6.58,-6.27,0.02,0.11,-0.03,E
148,155,2,1,14,-0.48,6.58,-6.03,-0.01,0.09,-0.04,E
149,155,3,3,16,-0.10,6.45,-6.41,-0.04,0.06,0.02,E
150,155,2,2,14,0.01,6.93,-6.05,-0.08,0.12,0.03,E
149,157,2,3,14,-0.28,6.55,-6.11,-0.05,0.34,-0.15,E
150,155,3,2,15,-0.33,6.77,-5.99,0.02,0.04,0.03,E
149,156,1,2,15,0.02,6.81,-5.96,-0.09,-0.02,-0.00,E
149,156,3,3,15,0.03,6.96,-5.78,0.08,0.03,-0.01,E
147,155,3,3,15,0.33,6.93,-6.06,-0.11,-0.15,0.01,E
147,153,2,1,14,0.13,6.81,-6.02,-0.05,-0.08,0.02,E
147,154,2,4,15,0.20,6.99,-5.74,-0.05,0.05,-0.05,E
145,153,3,2,15,0.22,6.91,-5.80,-0.02,-0.01,-0.05,E
145,153,4,2,15,-0.06,6.90,-5.69,-0.01,-0.09,-0.00,E
186,159,5,5,32,0.17,8.29,-4.28,0.03,0.00,0.01,F
187,159,3,6,30,0.20,8.32,-4.04,-0.01,-0.04,0.01,F
186,157,5,5,32,0.34,8.37,-4.21,-0.05,0.02,0.00,F
186,157,5,5,31,0.34,8.31,-4.12,-0.01,-0.05,0.02,F
186,158,4,5,31,0.26,8.41,-4.12,-0.04,-0.05,0.01,F
185,158,4,6,32,0.39,8.30,-4.07,-0.04,-0.06,0.00,F
185,157,4,5,31,0.34,8.49,-4.12,-0.18,-0.05,0.02,F
187,161,5,6,31,0.32,8.49,-4.10,0.03,0.01,0.00,F
188,165,4,5,30,0.33,8.57,-3.79,-0.15,-0.15,-0.01,F
187,164,5,6,31,0.34,8.50,-3.87,0.03,-0.07,-0.11,F
189,162,5,5,31,0.11,8.24,-3.99,0.02,0.09,-0.11,F
188,161,6,7,30,-0.40,8.38,-3.91,-0.02,-0.07,0.02,F
190,163,5,5,32,-0.38,8.38,-3.74,-0.12,-0.07,0.21,F
194,159,4,5,30,0.29,9.10,-3.28,-0.03,-0.07,0.13,F
213,154,6,7,30,0.43,8.95,-3.11,-0.24,0.31,0.10,F
218,149,7,3,32,0.65,9.05,-2.15,0.05,0.19,0.07,F
220,150,6,6,30,0.52,9.05,-3.05,-0.13,-0.07,0.06,F
221,153,5,5,31,0.83,9.08,-2.68,0.10,-0.00,0.02,F
221,154,3,6,31,0.66,9.07,-2.87,-0.01,-0.10,0.04,F
221,156,4,5,31,0.93,8.75,-3.35,0.04,-0.12,0.05,F
218,163,5,5,31,0.58,8.82,-3.14,-0.15,-0.13,-0.11,F
212,165,5,5,32,0.08,8.99,-2.64,0.16,0.05,-0.02,F
214,164,7,6,33,0.30,9.04,-3.18,-0.05,-0.10,0.04,F
213,164,5,5,31,0.62,8.87,-3.11,-0.00,-0.06,0.03,F
212,165,4,7,32,0.66,8.87,-3.30,-0.11,0.17,-0.04,F
213,164,5,5,32,0.55,8.81,-3.26,0.03,0.04,0.03,F
213,165,4,5,31,0.62,8.79,-3.28,-0.03,-0.06,0.01,F
213,165,5,7,31,0.64,8.75,-3.31,0.00,-0.04,0.01,F
214,165,5,7,31,0.74,8.75,-3.28,-0.03,-0.02,-0.07,F
211,164,5,6,31,-0.55,8.61,-2.60,0.37,-0.13,-0.52,F
207,162,5,4,32,-0.52,8.40,-4.21,0.19,0.12,0.19,F
206,164,6,6,31,-0.03,8.37,-5.26,0.03,0.01,-0.03,F
205,165,5,5,32,0.15,7.83,-4.32,-0.02,0.02,0.09,F
204,165,5,5,32,0.06,8.13,-4.62,-0.06,-0.04,0.07,F
204,166,5,6,33,0.74,7.99,-5.28,-0.16,0.73,-0.13,F
190,173,5,5,32,1.42,8.59,-3.42,-0.29,0.59,-0.33,F
180,174,5,4,31,1.08,8.31,-3.24,0.09,-0.40,0.05,F
176,175,4,5,32,0.84,8.69,-3.65,0.20,-0.35,0.11,F
180,175,5,4,32,0.91,8.09,-4.25,0.01,-0.13,0.01,F
175,173,7,5,31,1.21,8.49,-4.05,-0.02,0.01,0.04,F
168,175,6,5,30,1.02,8.49,-4.02,-0.01,0.20,-0.05,F
168,176,4,5,30,1.23,8.48,-3.84,-0.10,-0.00,-0.01,F
172,182,6,5,32,1.25,8.49,-3.93,0.02,0.00,0.01,F
168,181,5,5,31,1.15,8.55,-3.96,-0.09,-0.01,0.02,F
171,182,4,5,30,1.43,8.47,-3.96,-0.02,-0.02,0.00,F
208,189,5,5,32,0.92,8.41,-4.04,-0.32,-0.49,0.00,F
219,154,5,4,31,0.18,8.95,-3.04,-0.28,-0.80,0.20,F
224,152,4,5,32,0.25,8.79,-3.06,0.01,-0.33,0.08,F
224,152,5,6,33,0.73,8.71,-3.28,-0.14,-0.11,0.18,F
224,154,5,4,32,0.97,8.97,-2.71,-0.04,-0.01,0.00,F
224,155,4,5,30,0.92,9.00,-2.93,-0.06,-0.05,0.07,F
224,157,6,7,31,0.88,8.88,-3.06,-0.02,-0.05,-0.01,F
223,158,5,4,31,0.90,8.99,-3.07,-0.04,-0.09,0.02,F
223,157,5,5,31,0.90,8.91,-2.93,0.02,-0.01,-0.01,F
224,158,6,5,32,0.57,8.59,-3.20,0.05,-0.18,-0.02,F
223,161,5,3,32,0.72,8.72,-3.43,-0.00,-0.14,0.12,F
224,161,5,5,30,0.88,8.81,-3.29,0.06,-0.08,0.07,F
224,162,6,6,31,0.78,8.61,-3.45,0.14,0.05,0.00,F
224,163,5,5,31,0.61,8.65,-3.58,0.00,-0.04,0.01,F
224,164,7,5,32,0.51,8.66,-3.51,-0.03,-0.02,-0.04,F
224,164,5,5,30,0.43,8.68,-3.51,0.05,-0.19,0.12,F
224,164,6,5,32,0.55,8.83,-4.19,-0.09,-0.14,0.26,F
223,164,5,5,30,1.19,8.81,-2.85,-0.38,0.02,-0.03,F
224,164,5,4,30,0.71,8.83,-3.05,-0.23,0.13,0.07,F
225,165,3,7,31,1.20,9.33,-2.19,-0.02,-0.03,0.07,F
225,164,6,5,33,1.84,9.02,-2.41,-0.02,-0.01,0.06,F
225,164,5,4,31,0.65,9.35,-2.49,0.04,0.39,-0.54,F
224,165,6,6,31,-0.02,8.93,-3.06,0.33,0.32,-0.06,F
223,166,5,6,31,0.44,8.78,-4.32,0.51,-0.25,0.07,F
223,166,6,5,32,0.95,8.89,-4.05,0.03,0.11,0.14,F
223,167,5,6,32,0.55,8.34,-3.63,-0.01,-0.10,-0.03,F
223,167,5,5,30,0.82,8.64,-3.75,-0.06,-0.08,0.08,F
217,168,6,7,32,0.71,8.64,-3.45,0.04,0.06,0.01,F
213,157,5,6,31,1.27,8.72,-3.26,-0.16,0.15,0.05,F
213,148,5,5,32,1.34,8.86,-3.00,-0.27,-0.13,0.10,F
180,147,5,5,31,1.27,9.14,-3.06,-0.08,-0.03,0.00,F
178,149,5,5,31,0.92,9.09,-2.81,0.02,-0.12,0.06,F
179,150,7,5,32,1.05,8.97,-2.99,-0.04,-0.03,-0.04,F
177,148,5,6,31,1.13,8.84,-3.15,0.03,-0.02,-0.00,F
156,137,5,5,31,1.53,8.60,-3.27,0.09,0.05,0.03,F
132,130,5,4,32,1.68,8.81,-3.45,-0.17,0.27,-0.03,F
135,135,5,5,31,1.37,8.55,-3.23,0.02,-0.03,-0.02,F
139,137,6,3,32,1.60,8.68,-3.38,-0.07,-0.06,0.04,F
139,137,5,5,30,1.54,8.91,-3.11,0.02,0.02,0.07,F
140,136,5,5,32,1.49,8.87,-3.04,-0.05,-0.04,0.03,F
139,134,5,4,31,1.97,8.76,-3.13,0.03,0.01,0.01,F
142,137,6,5,33,1.75,8.77,-3.11,-0.01,-0.06,0.07,F
141,136,5,6,32,1.62,8.76,-3.27,0.04,-0.07,0.03,F
143,139,3,6,31,1.76,9.05,-3.14,-0.21,-0.14,0.02,F
143,138,5,4,32,1.81,8.66,-2.55,-0.17,-0.15,0.05,F
143,138,5,6,31,1.73,8.94,-2.39,0.00,0.05,0.01,F
145,139,5,6,31,1.69,9.25,-2.74,0.09,-0.02,-0.10,F
145,139,5,5,31,1.24,8.63,-2.91,0.03,0.03,-0.02,F
146,140,4,6,30,1.36,8.90,-3.10,0.00,0.01,-0.03,F
147,139,5,6,31,1.49,8.73,-3.05,-0.01,0.01,-0.03,F
148,140,5,6,31,1.46,8.88,-3.22,0.03,-0.06,0.02,F
149,139,5,5,32,1.61,8.79,-3.12,0.01,-0.01,0.02,F
149,138,3,4,31,1.62,8.85,-3.18,-0.05,-0.01,0.03,F
150,141,5,6,31,1.72,8.81,-3.17,-0.02,-0.03,0.01,F
149,140,5,6,31,1.59,8.83,-3.15,-0.06,-0.01,-0.01,F
150,139,6,3,32,1.54,8.86,-3.04,-0.04,-0.02,0.01,F
149,139,5,5,30,1.53,8.83,-3.09,-0.01,0.02,0.00,F
149,140,5,5,31,1.62,8.89,-3.02,-0.01,0.01,-0.00,F
150,140,4,5,30,1.54,8.64,-2.93,0.16,-0.12,0.01,F
150,140,6,5,34,1.59,8.84,-3.25,-0.08,-0.03,0.00,F
150,139,6,5,32,1.58,8.72,-3.24,-0.03,-0.03,-0.00,F
151,141,5,5,31,1.68,8.73,-3.18,-0.01,-0.02,0.01,F
151,140,5,5,31,1.60,8.75,-3.20,-0.03,-0.02,0.01,F
150,140,5,4,32,1.66,8.78,-3.21,-0.04,-0.02,0.01,F
151,141,5,4,32,1.63,8.79,-3.28,-0.02,-0.03,0.01,F
151,140,3,4,31,1.66,8.74,-3.12,-0.01,-0.00,-0.01,F
152,141,5,5,31,1.59,8.77,-3.11,-0.03,-0.03,-0.02,F
152,141,5,7,31,1.67,8.76,-3.26,-0.02,-0.02,0.00,F
152,141,5,5,29,1.62,8.78,-3.16,-0.03,-0.01,0.01,F
153,140,4,6,31,1.63,8.75,-3.12,0.01,-0.02,0.01,F
152,140,5,4,31,1.68,8.76,-3.19,-0.03,-0.00,0.01,F
152,140,5,5,33,1.71,8.83,-3.13,-0.02,-0.02,0.03,F
151,141,4,6,31,1.63,8.78,-3.12,-0.02,-0.01,0.00,F
151,141,4,5,30,1.52,8.96,-3.28,-0.08,-0.00,-0.08,F
154,141,6,6,32,1.81,8.68,-3.49,0.14,-0.13,-0.13,F
153,142,6,5,31,1.14,8.75,-3.76,0.04,-0.12,-0.13,F
154,142,5,4,32,0.46,8.46,-3.13,0.07,-0.07,-0.29,F
216,234,2,0,20,1.85,6.50,-6.17,0.01,0.06,-0.03,G
216,234,2,1,18,1.22,6.34,-6.47,-0.02,-0.23,0.07,G
215,234,3,1,20,1.76,6.23,-6.91,0.01,-0.01,0.01,G
217,234,3,1,20,1.25,6.12,-7.07,-0.03,0.11,-0.14,G
215,235,2,1,18,1.20,6.59,-6.43,-0.11,-0.13,0.01,G
216,235,2,2,19,1.53,6.08,-6.65,0.18,-0.04,0.14,G
216,234,4,1,20,1.70,6.13,-6.48,-0.00,-0.02,-0.03,G
216,235,2,1,19,1.55,6.17,-6.11,-0.02,-0.01,0.05,G
216,235,0,1,18,1.39,6.13,-6.76,0.01,0.08,-0.05,G
217,235,4,1,18,1.40,6.17,-6.87,-0.06,-0.21,-0.01,G
217,234,2,1,19,1.13,6.06,-6.50,-0.07,-0.21,0.08,G
216,235,1,1,20,1.10,6.47,-6.27,-0.04,-0.16,0.03,G
217,235,2,2,20,1.19,6.37,-6.51,-0.13,-0.09,0.10,G
217,234,2,0,19,0.79,6.18,-6.46,0.08,-0.09,-0.12,G
216,236,1,2,18,0.51,6.27,-6.42,-0.03,-0.04,-0.00,G
216,235,2,1,19,0.87,6.25,-6.66,0.04,-0.05,0.07,G
217,235,1,2,20,0.70,6.13,-6.61,-0.03,-0.03,-0.01,G
216,236,2,3,19,0.63,5.97,-6.70,0.09,0.01,0.02,G
216,235,1,1,20,0.76,5.81,-6.90,0.07,-0.00,0.04,G
217,234,1,0,19,0.84,5.86,-7.18,-0.03,-0.07,0.04,G
216,236,2,1,19,0.57,5.77,-6.63,-0.07,-0.10,0.02,G
216,235,2,1,18,0.69,5.99,-6.61,0.02,-0.01,0.11,G
216,236,2,2,19,0.90,6.03,-6.95,-0.04,-0.02,0.02,G
216,236,2,2,19,0.86,6.00,-6.69,-0.01,-0.01,-0.09,G
216,234,1,0,20,0.81,5.91,-6.82,-0.03,0.01,-0.10,G
217,235,2,1,19,0.66,5.85,-6.81,0.04,0.05,-0.11,G
216,236,2,1,18,0.66,5.71,-6.85,0.02,0.08,-0.07,G
215,236,2,1,18,0.70,5.73,-7.04,-0.04,-0.03,0.02,G
215,236,2,1,19,0.80,5.75,-6.89,-0.05,-0.08,0.03,G
216,235,2,1,19,0.72,5.77,-7.00,-0.03,-0.06,0.05,G
216,236,2,1,18,0.81,5.81,-6.78,-0.02,-0.22,0.15,G
216,236,2,1,19,0.82,5.81,-6.97,-0.05,-0.06,0.03,G
216,236,0,1,18,0.53,5.84,-6.85,-0.02,-0.02,0.02,G
216,236,2,3,19,0.50,5.79,-6.95,-0.00,-0.00,0.09,G
216,237,1,2,19,0.83,5.95,-6.74,-0.03,0.05,0.17,G
215,236,0,1,20,1.09,5.93,-6.90,0.03,0.01,-0.01,G
217,235,3,2,20,1.05,5.86,-6.79,-0.06,-0.07,0.02,G
216,235,2,1,20,0.96,5.88,-6.83,-0.02,-0.02,-0.01,G
217,236,2,2,19,1.03,5.91,-6.77,-0.00,0.02,0.00,G
216,236,2,5,19,0.99,5.97,-6.83,-0.05,-0.02,-0.02,G
216,235,2,2,18,0.94,5.95,-6.76,-0.03,0.04,-0.06,G
217,234,1,2,19,1.02,5.95,-6.79,-0.07,0.00,-0.02,G
216,235,2,0,20,0.89,6.04,-6.58,0.02,0.04,-0.06,G
216,236,1,2,19,0.85,5.86,-6.94,0.00,0.08,-0.11,G
217,236,2,2,19,0.77,5.75,-7.10,0.06,0.05,-0.07,G
217,235,1,1,20,0.86,5.93,-6.71,-0.02,-0.00,-0.00,G
215,236,2,1,19,0.90,5.77,-6.90,-0.02,-0.05,0.04,G
216,236,2,1,19,0.75,5.83,-6.78,-0.04,-0.06,0.05,G
216,236,1,1,18,0.90,5.84,-6.89,-0.02,-0.06,0.05,G
215,236,2,1,18,0.90,5.81,-6.90,-0.05,-0.09,0.08,G
216,236,2,2,19,0.87,5.86,-6.90,-0.00,-0.09,0.07,G
215,236,0,1,19,0.90,5.91,-6.82,-0.04,-0.00,0.04,G
217,234,2,1,19,1.04,5.96,-6.82,-0.00,0.01,0.00,G
217,235,2,0,20,0.94,5.94,-6.62,-0.03,0.01,-0.01,G
216,235,3,1,19,1.07,5.97,-6.72,-0.03,0.07,-0.03,G
216,235,1,1,20,1.11,5.98,-6.66,-0.01,0.02,-0.03,G
217,236,3,1,18,1.12,5.97,-6.76,-0.02,0.02,-0.01,G
216,235,2,2,20,0.97,5.91,-6.98,-0.02,-0.01,-0.00,G
216,235,1,2,20,1.17,5.79,-6.98,0.10,-0.01,-0.05,G
216,236,2,3,19,1.15,5.69,-7.02,-0.08,-0.13,0.18,G
217,237,1,3,19,1.81,6.14,-6.23,0.19,0.09,-0.08,G
217,235,2,2,20,1.03,5.63,-7.10,-0.08,0.03,0.01,G
217,235,1,2,20,1.19,5.87,-6.84,-0.12,-0.06,0.03,G
216,236,2,2,18,1.14,6.00,-6.61,-0.02,-0.05,-0.01,G
218,235,2,2,20,1.11,5.87,-6.90,-0.03,-0.03,0.01,G
217,235,2,2,18,1.15,5.83,-6.82,0.04,0.01,-0.01,G
216,235,1,2,19,1.05,5.90,-6.81,-0.01,-0.02,-0.02,G
216,235,1,2,19,0.89,5.87,-6.74,-0.04,0.01,-0.00,G
215,235,2,3,19,1.14,5.89,-6.85,-0.05,-0.01,-0.00,G
216,235,1,3,19,1.00,5.87,-6.80,-0.03,-0.01,0.01,G
216,236,2,2,20,1.04,5.92,-6.83,-0.01,-0.04,0.01,G
168,234,6,2,21,6.50,-0.11,-6.73,-0.02,0.00,-0.02,H
167,235,5,3,22,6.56,-0.10,-6.65,-0.02,-0.02,0.01,H
168,235,6,2,20,6.50,-0.09,-6.72,-0.02,-0.05,0.01,H
168,234,6,2,21,6.50,-0.03,-6.63,0.00,-0.01,0.01,H
168,235,6,3,21,6.40,-0.05,-6.65,-0.01,0.01,-0.01,H
169,234,6,2,21,6.38,-0.04,-6.66,0.01,0.15,-0.06,H
169,236,7,2,21,7.09,0.40,-5.95,0.17,0.44,-0.26,H
168,235,7,4,22,8.93,0.22,-4.53,0.30,0.66,-0.39,H
168,236,8,3,23,8.78,0.09,-4.41,0.31,0.12,-0.23,H
167,236,5,2,21,8.56,0.72,-3.78,-0.05,-0.12,-0.19,H
165,235,5,2,23,9.69,0.60,-3.76,0.10,0.64,-0.38,H
164,236,5,2,21,8.62,1.13,-3.66,-0.08,-0.21,0.07,H
162,237,6,3,21,9.01,1.16,-3.48,-0.01,-0.09,0.08,H
160,237,7,3,23,8.92,1.13,-3.48,-0.03,0.41,-0.13,H
159,237,8,2,22,9.03,1.22,-3.21,-0.08,-0.07,0.06,H
160,235,6,2,20,9.26,1.02,-3.39,-0.04,0.04,0.03,H
160,236,6,1,22,9.43,1.22,-3.00,-0.07,-0.08,0.09,H
159,236,6,2,21,9.26,1.04,-3.23,0.04,0.02,-0.08,H
154,237,6,1,21,9.37,1.61,-2.76,0.02,0.01,0.02,H
153,236,5,2,21,9.04,1.48,-2.96,0.11,0.01,0.02,H
153,236,5,3,21,9.19,1.29,-3.22,-0.06,0.00,0.03,H
153,237,7,2,21,9.29,1.13,-3.17,-0.15,-0.09,0.10,H
155,236,6,2,21,8.99,1.13,-3.38,-0.40,-0.25,0.18,H
155,237,7,4,21,9.23,1.17,-3.32,-0.56,-0.19,0.26,H
157,236,6,2,21,8.90,1.23,-3.31,-0.50,-0.15,0.34,H
156,237,6,2,20,9.04,1.41,-3.11,-0.12,0.04,0.11,H
156,237,6,1,20,9.22,1.11,-3.37,0.18,-0.10,-0.08,H
158,237,5,2,22,8.97,0.84,-3.79,0.08,0.04,-0.07,H
158,237,6,2,20,9.05,0.84,-3.77,-0.02,-0.01,-0.02,H
158,237,6,3,20,9.00,1.02,-3.52,-0.06,-0.01,0.02,H
158,237,6,1,20,9.02,0.86,-3.71,0.01,-0.03,-0.01,H
158,237,8,2,22,8.97,1.00,-3.51,-0.15,0.00,0.03,H
159,236,5,2,21,9.20,1.14,-3.38,-0.12,0.03,0.01,H
160,238,6,4,19,9.26,1.05,-3.27,-0.07,-0.11,-0.01,H
159,236,6,2,20,8.61,1.40,-3.48,-0.43,-0.12,0.14,H
159,237,6,3,20,8.92,1.15,-3.58,-0.23,0.07,0.22,H
160,237,5,2,20,8.99,1.02,-3.46,-0.08,0.04,0.03,H
161,236,5,2,21,9.21,1.15,-3.21,-0.19,0.07,0.04,H
159,237,5,1,19,9.41,1.08,-3.16,-0.02,0.01,0.04,H
160,236,5,2,21,9.17,0.84,-3.38,0.05,-0.03,-0.02,H
160,237,4,2,20,9.24,1.02,-3.20,-0.06,-0.09,0.01,H
159,236,6,3,19,9.25,1.08,-3.22,-0.01,0.04,-0.02,H
161,237,6,3,19,9.05,0.98,-3.11,0.08,-0.05,0.02,H
160,236,5,2,20,9.11,1.04,-3.15,-0.05,-0.03,0.02,H
161,237,5,1,20,9.25,0.97,-3.14,-0.03,0.03,0.00,H
160,237,4,2,18,9.31,1.09,-3.06,-0.05,-0.00,-0.04,H
159,236,6,2,19,9.30,1.07,-2.90,0.08,-0.05,0.01,H
163,237,8,2,20,9.26,1.13,-3.12,0.04,-0.05,0.01,H
162,237,6,2,20,9.05,0.92,-3.21,0.11,-0.10,-0.08,H
161,237,5,2,21,9.14,0.92,-3.51,-0.02,-0.02,-0.01,H
161,238,5,2,20,9.21,1.09,-3.30,-0.09,0.10,-0.00,H
161,236,5,2,19,9.29,1.03,-3.19,0.05,-0.03,-0.00,H
161,237,6,4,19,9.00,1.04,-3.18,-0.02,-0.08,0.02,H
160,236,4,2,20,9.16,1.03,-3.17,-0.00,-0.01,-0.01,H
162,236,5,3,20,9.20,1.04,-3.17,0.03,0.05,-0.04,H
164,237,7,2,20,8.92,0.98,-3.38,0.00,0.00,-0.08,H
162,237,6,1,21,9.11,1.09,-3.31,-0.04,-0.04,-0.03,H
162,238,5,5,19,9.30,1.33,-3.09,-0.01,-0.00,-0.01,H
163,238,3,2,19,9.91,1.20,-3.28,0.13,0.32,-0.29,H
161,237,5,1,20,8.20,1.65,-2.71,0.18,0.23,-0.09,H
162,237,4,2,18,9.68,2.34,-1.74,0.44,0.25,-0.36,H
163,238,7,2,22,9.13,1.66,-1.90,0.79,-0.25,-0.14,H
162,237,5,1,19,9.40,1.37,-2.01,0.31,0.50,-0.27,H
161,237,5,3,20,9.92,1.92,-1.56,-0.02,0.11,-0.01,H
160,237,6,3,21,9.84,1.92,-1.49,-0.15,0.03,0.01,H
162,237,7,2,19,9.75,2.16,-1.35,-0.14,-0.08,-0.05,H
161,237,6,2,21,9.74,2.12,-1.39,-0.09,-0.10,-0.09,H
160,237,6,1,20,9.47,2.52,-1.68,-0.10,0.01,-0.09,H
161,237,5,4,21,9.24,2.83,-1.30,-0.21,-0.03,-0.06,H
161,237,5,2,21,9.61,2.90,-1.25,-0.22,0.04,0.04,H
162,237,5,2,21,9.41,2.98,-1.47,-0.02,-0.05,0.05,H
162,237,7,3,23,9.27,2.79,-1.30,-0.03,-0.10,0.03,H
162,235,6,2,20,9.52,2.71,-1.62,-0.23,-0.08,0.10,H
162,237,4,2,19,8.96,2.46,-1.85,0.24,0.30,0.43,H
163,236,7,3,23,9.22,0.98,-2.45,-0.22,-0.37,0.44,H
163,237,5,1,20,10.38,0.44,-1.03,-0.15,0.19,0.25,H
164,236,5,3,21,10.47,-0.05,-1.43,0.01,-0.06,0.15,H
163,237,5,1,20,9.76,0.20,-1.26,0.22,0.03,-0.08,H
164,236,6,1,20,9.62,0.23,-1.22,0.71,-0.28,-0.10,H
164,238,7,1,20,9.59,-0.18,-1.91,0.50,0.02,-0.11,H
163,237,5,1,19,9.41,-0.23,-1.82,0.05,0.33,-0.11,H
163,237,6,5,20,10.73,-0.77,-1.68,-0.81,-0.90,0.44,H
163,236,6,1,19,10.03,-0.34,-2.58,-0.90,-0.10,-0.11,H
164,236,5,2,21,9.51,0.47,-2.00,-0.52,0.01,0.19,H
164,236,7,3,21,9.58,0.86,-2.12,-0.34,0.17,0.04,H
164,237,5,5,19,9.77,0.58,-2.18,0.03,-0.21,-0.03,H
163,237,5,4,19,9.40,0.61,-2.39,-0.35,-0.18,0.07,H
164,237,5,2,21,9.67,0.53,-2.66,-0.40,0.08,0.11,H
164,237,5,1,20,9.71,1.01,-2.26,-0.25,0.06,0.10,H
164,236,5,2,21,9.89,0.89,-2.23,-0.22,-0.02,0.04,H
164,236,5,2,20,9.45,1.02,-2.24,-0.28,-0.01,0.05,H
165,236,3,1,19,9.60,0.83,-2.16,-0.15,0.07,0.02,H
164,236,7,3,19,10.16,0.56,-2.03,-0.05,0.16,0.10,H
165,236,5,2,21,9.81,0.63,-2.14,-0.15,-0.16,-0.09,H
164,234,5,2,20,9.14,0.98,-2.11,-0.02,-0.16,0.10,H
166,237,4,4,19,9.73,0.42,-2.26,0.09,0.01,0.05,H
164,237,5,4,19,9.84,0.66,-1.81,0.06,0.15,0.00,H
164,235,6,2,20,9.57,0.63,-2.01,-0.00,-0.00,0.01,H
165,235,5,2,21,9.91,0.61,-1.75,0.02,0.01,-0.01,H
166,235,7,2,22,9.67,0.59,-1.80,-0.04,-0.00,-0.00,H
169,180,5,3,29,-1.50,8.73,-1.77,-0.30,0.07,0.23,I
168,180,6,3,31,-1.28,9.75,-0.28,-0.05,-0.33,0.05,I
169,182,3,2,28,-2.70,9.67,-1.57,0.46,-0.60,0.39,I
169,184,4,3,29,-2.08,8.22,-3.40,0.39,-0.48,0.11,I
172,186,5,3,30,-0.61,8.85,-2.86,-0.04,0.14,0.25,I
173,188,3,4,28,-0.81,8.13,-3.54,0.60,-0.01,-0.03,I
173,190,3,4,29,-1.34,8.77,-4.73,0.25,0.03,0.13,I
174,190,3,3,28,-0.92,7.90,-4.49,-0.07,-0.03,0.02,I
175,190,5,3,28,-1.14,7.94,-4.68,-0.02,0.01,-0.01,I
175,191,6,3,28,-2.26,7.64,-6.21,-0.27,0.24,0.34,I
176,191,4,3,30,-0.23,8.72,-2.60,-1.23,-0.01,-0.13,I
174,187,4,3,30,-1.11,9.47,-0.07,-0.60,0.10,-0.11,I
175,186,3,4,29,-1.02,9.30,-0.62,-0.22,-0.01,-0.10,I
175,185,5,3,30,-1.53,9.27,0.53,-0.16,-0.12,-0.12,I
174,185,2,2,28,-1.45,9.65,0.80,0.10,-0.07,0.06,I
174,186,3,2,28,-1.20,9.56,-0.31,-0.05,-0.01,0.01,I
175,184,3,2,29,-1.28,9.67,-0.16,-0.05,-0.04,0.04,I
175,184,2,2,29,-1.21,9.51,0.06,-0.01,0.03,-0.01,I
175,185,3,2,28,-1.28,9.61,-0.00,-0.01,-0.04,-0.02,I
173,185,4,3,29,-1.33,9.67,-0.26,-0.03,-0.00,0.00,I
175,186,3,2,30,-1.35,9.64,-0.26,-0.05,-0.02,0.00,I
176,185,3,4,29,-1.32,9.57,0.12,0.00,-0.11,-0.08,I
175,186,2,3,29,-1.44,9.71,0.00,0.05,-0.11,0.05,I
174,187,3,2,28,-0.97,9.65,-0.40,0.24,-0.30,-0.06,I
175,188,3,5,30,-1.59,9.30,-0.85,0.06,-0.10,-0.10,I
174,188,3,1,29,-1.96,9.50,-0.76,0.01,0.03,-0.01,I
175,186,3,2,28,-1.90,9.43,-0.65,-0.10,0.12,0.04,I
174,187,2,3,28,-1.63,9.60,-0.59,-0.02,-0.05,-0.04,I
175,187,1,3,29,-1.92,9.56,-0.44,-0.10,0.20,-0.09,I
175,186,3,2,29,-2.49,9.17,-1.20,-0.10,0.13,-0.31,I
174,186,4,2,29,-1.89,9.19,-0.62,0.14,0.29,-0.09,I
173,187,4,2,30,-1.97,9.21,-1.43,0.01,0.14,0.03,I
175,184,2,2,32,-1.80,9.28,-1.08,-0.02,-0.04,0.06,I
175,180,4,2,29,-1.68,9.25,-1.10,-0.06,0.05,-0.02,I
174,177,4,3,28,-1.94,9.27,-1.24,-0.06,0.01,-0.01,I
173,175,3,1,30,-1.86,9.14,-1.23,-0.05,0.03,0.04,I
174,173,3,1,28,-1.80,9.37,-1.15,-0.05,0.07,-0.04,I
174,171,3,3,29,-2.13,9.18,-0.73,-0.04,-0.03,-0.01,I
174,170,2,4,27,-1.55,9.53,-0.85,-0.11,-0.04,0.20,I
174,169,2,1,29,-1.46,9.29,-1.02,0.05,0.00,-0.05,I
175,171,4,2,30,-1.50,9.33,-1.37,0.02,0.01,0.01,I
173,171,4,3,28,-1.64,9.37,-1.28,0.02,-0.07,0.01,I
174,172,2,2,28,-1.61,9.43,-1.41,-0.05,-0.08,0.06,I
174,173,2,1,28,-1.83,9.28,-1.07,0.00,-0.27,0.05,I
174,173,3,1,29,-1.51,9.48,-0.99,0.02,-0.37,0.05,I
175,173,3,2,29,-1.75,9.44,-0.98,0.03,-0.16,0.04,I
174,173,3,3,29,-1.77,9.30,-0.91,-0.01,-0.12,-0.02,I
175,173,4,1,30,-2.12,9.48,-0.82,-0.02,0.12,0.15,I
175,173,3,3,28,-1.62,9.48,-1.13,-0.04,-0.15,0.02,I
174,174,4,2,28,-1.53,9.46,-1.02,-0.01,0.05,0.03,I
175,175,4,2,31,-1.28,9.47,-1.16,-0.01,0.03,0.00,I
177,175,4,2,30,-1.33,9.48,-1.02,-0.05,-0.01,0.03,I
176,174,3,2,29,-1.54,9.49,-0.92,-0.01,-0.09,0.02,I
176,174,1,1,28,-1.20,9.52,-0.95,-0.01,-0.04,-0.02,I
177,175,3,2,31,-0.93,9.53,-1.49,-0.06,0.10,0.02,I
177,174,2,2,31,-0.93,9.42,-0.70,0.02,0.06,-0.02,I
176,175,3,4,29,-1.68,9.54,-1.32,-0.07,0.04,0.04,I
177,175,1,3,29,-1.31,9.44,-0.81,-0.03,-0.02,-0.01,I
178,175,4,2,31,-0.74,9.35,-0.85,-0.03,0.06,0.07,I
176,175,2,3,30,-0.91,9.70,-0.99,-0.06,0.05,0.09,I
178,175,3,2,29,-1.17,9.57,-0.90,0.05,0.04,-0.13,I
177,174,3,2,29,-0.96,9.66,-0.98,-0.08,0.08,0.07,I
178,175,2,1,29,-0.30,9.56,-0.94,-0.06,0.07,0.05,I
178,176,3,2,30,-0.54,9.63,-0.84,-0.02,0.05,0.03,I
178,176,2,1,30,-0.69,9.62,-0.79,-0.06,0.14,-0.05,I
178,176,3,4,30,-0.43,9.81,-0.85,-0.06,-0.04,-0.02,I
179,176,1,2,31,-0.54,9.75,-0.29,-0.01,0.01,0.09,I
180,177,5,2,30,-0.62,9.64,-0.27,-0.02,0.08,0.08,I
179,176,2,2,28,-0.10,9.75,-0.59,0.02,0.02,0.02,I
177,176,2,2,30,-0.34,9.59,-0.26,-0.01,0.02,-0.00,I
179,176,3,2,29,0.35,9.35,-0.64,0.06,0.14,0.12,I
179,176,2,1,28,0.12,9.75,-1.04,0.11,-0.15,0.03,I
180,176,5,3,30,0.05,9.65,-1.03,0.07,-0.22,0.06,I
179,175,4,2,29,-0.03,9.45,-0.79,-0.13,0.24,-0.01,I
178,176,3,2,29,0.27,9.63,-1.25,-0.09,0.05,-0.00,I
180,177,2,2,29,0.22,9.67,-1.15,-0.08,-0.01,-0.13,I
179,177,4,2,32,-0.01,9.60,-0.79,-0.02,-0.11,-0.03,I
179,175,3,1,29,0.14,9.68,-0.62,-0.01,-0.04,0.01,I
178,177,4,3,28,-0.14,9.63,-0.81,-0.05,0.01,0.01,I
178,176,3,2,29,0.05,9.80,-1.24,0.04,-0.04,0.00,I
179,177,3,4,29,0.08,9.70,-0.75,-0.04,-0.10,0.01,I
180,176,4,2,29,0.34,9.79,-0.69,-0.04,-0.07,-0.02,I
180,176,2,3,28,-0.03,9.79,-1.01,-0.02,-0.03,-0.11,I
180,177,3,3,29,-0.51,9.80,-0.52,-0.01,-0.08,-0.13,I
181,175,3,4,29,-0.45,9.45,-0.73,0.07,0.02,0.08,I
180,177,3,2,29,-0.44,9.62,-0.73,-0.04,0.02,0.02,I
179,176,3,2,29,0.08,9.57,-0.73,-0.03,-0.13,0.09,I
180,177,2,1,30,-0.41,9.59,-0.34,-0.10,-0.20,-0.09,I
180,177,2,2,28,0.05,9.52,-1.21,0.18,-0.00,-0.35,I
180,178,3,4,29,-0.52,9.60,-0.80,-0.09,0.08,0.04,I
181,178,4,2,32,0.19,9.77,-0.77,-0.02,0.13,-0.01,I
181,177,3,1,30,-0.35,9.78,-0.87,-0.08,-0.02,0.06,I
181,179,3,3,29,-0.11,9.70,-0.71,-0.03,-0.02,-0.01,I
181,178,4,2,30,-0.13,9.67,-0.83,-0.03,-0.02,0.02,I
180,178,2,2,28,-0.12,9.60,-0.90,-0.01,-0.02,0.00,I
181,179,4,2,30,-0.11,9.73,-0.87,-0.05,-0.05,0.01,I
181,179,2,1,29,-0.18,9.56,-0.58,-0.09,-0.07,-0.03,I
181,179,3,3,29,-0.31,9.60,-0.85,-0.04,-0.04,-0.02,I
182,179,4,2,29,0.03,9.77,-0.74,0.05,-0.05,-0.02,I
181,179,4,2,29,-0.16,9.62,-0.71,-0.04,-0.09,0.02,I
182,178,3,2,28,-0.09,9.64,-0.62,-0.03,-0.07,0.04,I
182,178,2,2,30,0.01,9.62,-0.83,-0.02,0.00,-0.01,I
182,179,3,3,29,-0.08,9.74,-0.75,0.01,-0.03,0.00,I
183,178,1,2,28,-0.11,9.62,-0.71,-0.00,-0.03,0.02,I
181,178,4,3,29,-0.02,9.67,-0.69,-0.01,-0.03,0.01,I
182,178,2,2,28,-0.03,9.70,-0.71,-0.03,0.02,-0.01,I
182,179,2,1,30,0.07,9.66,-0.72,-0.02,-0.00,0.01,I
182,178,3,2,29,0.03,9.69,-0.78,0.00,-0.01,-0.00,I
182,179,3,1,29,0.08,9.63,-0.68,-0.01,-0.03,0.00,I
182,178,3,2,29,-0.03,9.70,-0.73,-0.03,0.02,0.02,I
182,179,3,3,29,-0.11,9.67,-0.79,-0.01,-0.03,0.00,I
182,178,4,2,30,0.06,9.62,-0.73,-0.02,-0.00,0.00,I
187,169,3,1,30,4.60,8.20,-1.82,0.11,-0.17,0.14,J
189,170,1,2,29,4.37,8.90,-1.49,-0.03,0.03,0.07,J
187,170,3,2,30,4.07,8.87,-0.70,-0.06,0.15,-0.07,J
188,170,3,3,28,5.18,8.32,-1.30,-0.14,-0.02,-0.06,J
188,170,2,1,29,4.49,8.64,-1.23,0.13,-0.16,0.16,J
188,171,2,2,29,4.71,8.63,-1.98,0.07,0.17,-0.10,J
187,171,3,3,29,4.00,8.52,-1.48,0.04,-0.07,-0.13,J
187,170,2,1,29,3.98,8.59,-1.44,-0.06,-0.11,-0.02,J
188,170,2,2,29,4.39,8.72,-1.44,-0.08,-0.01,0.01,J
187,172,3,4,29,4.14,8.69,-1.34,-0.04,-0.00,0.04,J
188,170,2,4,30,4.34,8.74,-1.26,-0.04,-0.07,0.11,J
187,170,3,2,29,4.49,8.64,-1.24,-0.06,0.07,0.22,J
187,171,2,2,30,4.66,8.04,-1.39,-0.03,0.27,-0.22,J
187,172,3,1,29,4.69,8.39,-1.17,-0.09,-0.09,0.26,J
186,172,3,4,29,4.80,8.69,-0.34,-0.20,0.28,-0.12,J
186,171,2,2,30,5.41,8.52,-0.07,-0.20,0.08,0.03,J
181,170,2,2,29,5.15,9.00,0.93,-0.31,0.23,-0.10,J
176,172,2,1,29,4.79,8.70,0.93,-0.05,0.05,-0.05,J
177,171,4,3,30,5.00,8.79,1.08,-0.12,0.05,-0.06,J
177,170,1,1,29,4.58,8.82,1.14,0.03,-0.03,0.05,J
176,172,2,3,29,5.09,8.93,1.34,-0.06,0.10,-0.03,J
176,170,3,4,29,4.80,8.91,1.23,0.15,-0.14,-0.01,J
176,163,3,3,30,4.54,8.65,0.93,0.01,0.00,0.04,J
177,161,4,3,30,5.24,8.70,0.78,0.01,-0.05,0.00,J
176,162,2,2,29,4.81,8.94,0.46,0.03,-0.10,0.18,J
178,163,4,1,30,6.62,7.86,-0.11,0.07,-0.33,1.27,J
178,164,2,1,28,7.65,3.98,-0.14,0.91,-0.19,1.91,J
179,166,2,4,27,9.51,0.61,-1.90,1.04,-0.57,2.04,J
180,168,4,2,29,9.01,-3.51,-2.89,0.88,-0.02,0.78,J
180,168,2,2,30,8.71,-4.48,-2.30,0.07,-0.17,0.46,J
180,167,3,2,29,8.30,-3.95,-2.23,-0.15,-0.01,-0.26,J
181,169,1,2,29,8.64,-4.32,-2.34,0.08,-0.08,0.04,J
181,169,4,2,31,8.49,-3.81,-2.34,-0.12,-0.02,-0.06,J
182,168,4,3,30,9.09,-3.85,-2.49,0.00,0.11,-0.06,J
180,167,2,2,29,8.55,-3.68,-2.32,-0.04,0.03,-0.10,J
181,170,2,4,29,8.80,-3.70,-2.42,-0.01,-0.06,0.01,J
181,168,1,2,29,8.89,-3.66,-2.36,-0.10,0.04,-0.14,J
181,169,2,1,29,8.87,-3.19,-2.25,-0.10,0.08,-0.12,J
182,169,3,3,29,9.03,-3.07,-2.26,-0.01,0.02,-0.08,J
181,169,2,2,28,8.96,-3.05,-2.30,-0.05,-0.03,-0.03,J
181,168,1,2,29,9.53,-2.37,-2.25,-0.61,0.30,-0.99,J
181,169,2,1,28,9.58,-0.20,-1.69,-0.34,0.32,-0.41,J
182,168,2,2,30,10.06,0.52,-1.20,-0.57,0.26,-0.42,J
182,168,3,2,29,11.37,1.67,-0.51,-0.53,-0.46,-0.19,J
182,169,3,3,29,9.56,4.04,0.79,-0.27,0.16,-0.98,J
182,169,2,1,30,8.13,5.95,1.46,-0.00,0.25,-1.47,J
182,169,2,1,29,6.65,7.66,1.85,-0.13,0.38,-1.09,J
183,168,2,1,29,3.65,7.97,1.81,0.18,0.23,-1.34,J
182,169,2,2,30,2.80,9.82,2.64,0.01,-0.05,0.09,J
181,168,1,3,29,2.81,9.20,1.70,0.00,-0.00,0.07,J
182,169,2,3,30,3.33,9.42,2.08,0.05,-0.08,0.12,J
183,167,2,2,29,3.00,9.38,1.85,-0.01,0.00,0.01,J
182,169,2,2,30,3.38,9.35,1.83,-0.02,0.05,0.03,J
183,167,4,1,30,3.04,9.45,1.94,0.01,0.11,0.09,J
183,169,5,1,30,3.75,8.84,2.28,-0.02,0.48,0.34,J
183,167,3,2,29,4.69,9.04,2.82,-0.05,0.33,0.20,J
182,168,1,2,30,4.58,9.23,2.72,0.00,-0.00,0.13,J
181,168,2,3,29,4.13,8.64,2.50,0.07,0.10,-0.02,J
182,169,2,2,28,4.57,8.87,3.00,-0.11,-0.18,0.62,J
183,168,4,2,30,5.89,7.63,3.06,-0.13,-0.18,0.66,J
183,170,2,2,29,8.33,7.44,2.11,-0.32,-0.38,0.97,J
183,170,2,4,29,7.81,6.24,2.36,-0.08,-0.02,-0.03,J
183,169,3,2,27,8.27,5.79,2.31,-0.05,-0.12,-0.04,J
184,169,4,2,31,8.05,6.09,2.16,-0.05,-0.12,-0.13,J
183,168,3,1,29,8.43,6.13,1.89,-0.09,-0.22,0.02,J
184,168,2,2,30,7.42,6.71,1.88,-0.05,-0.14,0.07,J
184,169,2,4,29,8.40,5.63,1.62,-0.04,0.22,-0.02,J
185,168,1,2,31,8.05,5.79,1.97,-0.11,-0.01,-0.23,J
185,168,2,2,29,7.50,6.53,2.24,-0.08,-0.04,-0.05,J
184,169,2,1,29,7.68,6.28,2.07,0.01,-0.08,-0.04,J
184,169,4,2,30,7.85,6.50,2.02,-0.08,-0.03,-0.03,J
184,169,2,4,31,7.64,6.43,2.16,0.01,-0.07,0.04,J
183,169,2,2,28,7.84,6.41,1.98,-0.01,-0.06,-0.01,J
185,169,4,2,29,7.57,6.51,1.91,-0.05,-0.08,0.00,J
184,169,3,2,30,7.83,6.38,1.75,-0.01,-0.15,0.06,J
184,168,2,2,29,7.79,6.53,1.79,-0.00,-0.03,-0.01,J
184,169,2,1,29,7.82,6.48,1.79,-0.03,-0.04,0.01,J
184,169,4,3,30,7.65,6.46,1.77,-0.04,-0.04,0.01,J
185,169,3,3,29,7.72,6.48,1.80,-0.03,0.00,-0.03,J
214,240,5,4,19,8.13,2.90,-4.19,-0.02,-0.02,-0.00,K
213,239,5,3,19,8.08,2.91,-4.23,-0.03,-0.04,-0.00,K
213,241,5,4,19,8.02,2.93,-4.33,-0.03,-0.03,0.00,K
213,241,5,3,20,8.04,2.94,-4.30,-0.02,-0.03,-0.00,K
214,241,7,2,20,8.07,2.97,-4.21,-0.05,-0.03,-0.00,K
214,240,6,3,20,8.18,2.98,-4.30,-0.01,-0.01,0.01,K
214,239,5,3,19,8.05,2.97,-4.25,-0.01,0.00,0.00,K
213,240,5,4,19,8.22,2.98,-4.23,-0.04,0.01,-0.01,K
213,239,5,2,20,8.03,2.92,-4.34,-0.03,-0.01,-0.00,K
214,240,6,3,20,8.08,3.09,-4.16,-0.00,-0.00,0.02,K
214,240,6,2,19,8.17,3.00,-4.29,-0.02,-0.00,-0.02,K
214,240,4,3,18,8.32,3.08,-4.28,0.01,-0.01,-0.05,K
213,239,7,3,21,7.99,2.97,-4.14,-0.01,-0.03,0.08,K
213,240,6,3,20,7.88,2.75,-4.69,-0.06,0.06,-0.05,K
213,239,5,4,19,8.33,2.87,-3.73,0.03,-0.00,-0.11,K
213,240,5,2,21,8.51,2.97,-4.26,-0.04,-0.03,-0.00,K
214,240,6,3,20,7.89,2.96,-4.07,-0.04,0.02,0.04,K
214,240,7,3,20,8.35,3.00,-4.36,-0.06,-0.02,-0.01,K
214,240,6,4,19,7.99,3.05,-4.08,-0.02,0.00,0.02,K
214,240,5,3,20,8.31,2.97,-4.33,0.04,-0.10,0.00,K
213,240,5,2,19,8.02,3.11,-3.93,0.09,-0.06,-0.05,K
213,240,5,2,20,8.58,2.96,-4.88,0.30,-0.14,-0.15,K
213,239,6,3,20,7.15,2.64,-4.13,0.19,-0.02,-0.20,K
213,239,5,3,21,7.91,2.49,-4.66,0.18,0.29,0.05,K
213,239,5,1,21,8.52,2.35,-4.04,0.08,0.32,0.15,K
213,238,5,2,20,9.01,2.06,-3.90,-0.07,-0.11,0.08,K
213,238,8,3,19,8.63,2.41,-3.74,0.01,-0.01,0.01,K
214,240,6,3,20,8.74,2.35,-3.59,-0.27,0.04,0.02,K
214,240,8,2,19,8.78,2.27,-3.57,0.00,-0.09,-0.01,K
215,240,5,2,20,8.64,2.37,-3.85,-0.02,0.03,-0.04,K
214,239,4,2,19,8.49,2.40,-3.66,0.03,-0.02,-0.06,K
216,240,8,3,20,8.58,2.34,-3.50,0.05,0.19,0.01,K
215,240,6,2,20,8.85,2.32,-3.63,-0.07,-0.05,-0.01,K
215,240,8,2,20,8.79,2.32,-3.38,-0.14,0.02,-0.00,K
215,240,7,2,20,9.06,2.50,-3.20,-0.11,-0.00,0.05,K
215,239,7,4,19,8.71,2.55,-2.90,-0.12,0.08,-0.11,K
215,241,7,5,19,8.52,2.64,-3.75,0.00,-0.10,0.13,K
214,240,6,4,20,8.89,2.56,-3.05,0.02,-0.01,-0.06,K
215,240,6,8,19,8.85,2.47,-3.38,0.01,0.02,-0.02,K
215,240,7,4,21,8.86,2.43,-3.42,-0.05,-0.12,0.03,K
215,240,7,4,20,8.67,2.43,-3.51,-0.05,-0.05,0.02,K
215,240,11,4,18,8.89,2.20,-3.72,-0.17,-0.26,0.16,K
215,240,5,2,20,8.57,2.52,-3.58,-0.26,-0.07,0.11,K
214,239,5,2,20,8.70,2.68,-3.28,-0.16,0.02,0.05,K
214,239,6,4,19,8.86,2.72,-3.50,-0.05,-0.02,0.02,K
214,240,6,3,20,8.65,2.49,-3.45,0.03,-0.00,-0.03,K
214,239,5,3,20,8.66,2.45,-3.57,-0.09,0.03,-0.03,K
214,240,5,3,20,8.88,2.50,-3.64,-0.02,0.02,0.01,K
215,240,5,2,20,8.61,2.60,-3.35,-0.06,-0.05,-0.01,K
214,239,6,4,19,8.64,2.53,-3.72,-0.10,-0.01,0.02,K
215,239,5,3,21,8.68,2.58,-3.63,-0.02,-0.13,-0.01,K
214,239,5,1,19,8.48,2.63,-3.42,-0.01,-0.05,0.02,K
214,239,6,3,20,9.00,2.57,-3.61,-0.01,0.03,-0.04,K
214,240,6,3,20,9.14,2.86,-3.28,0.00,-0.02,-0.21,K
214,240,6,3,20,8.49,2.83,-3.38,0.14,-0.01,-0.15,K
214,240,6,3,20,8.40,2.80,-3.68,0.04,0.03,-0.01,K
215,240,3,4,19,8.69,2.91,-3.56,0.04,0.00,-0.03,K
214,240,4,1,20,8.60,2.98,-3.36,0.02,-0.04,0.01,K
214,239,6,1,20,8.64,2.92,-3.62,0.07,-0.03,-0.01,K
214,238,5,2,20,8.72,2.93,-3.36,-0.00,-0.04,0.04,K
214,239,5,2,20,8.68,2.90,-3.49,-0.06,-0.08,0.01,K
214,239,5,3,20,8.44,2.92,-3.59,-0.08,-0.08,0.04,K
214,240,6,2,20,8.58,2.80,-3.67,-0.07,-0.06,0.03,K
214,239,5,4,19,8.40,2.83,-3.69,-0.06,-0.08,0.07,K
214,239,6,2,20,8.49,2.75,-3.84,-0.07,-0.04,0.05,K
214,239,6,2,20,8.74,2.87,-3.66,-0.03,0.02,0.00,K
215,240,7,2,19,8.16,2.75,-3.69,-0.01,0.05,-0.00,K
214,239,6,1,19,8.54,2.30,-3.87,-0.23,-0.33,0.08,K
214,241,6,4,19,9.10,2.92,-3.42,-0.37,-0.03,0.08,K
214,239,6,2,21,8.16,3.03,-3.75,-0.34,-0.26,0.22,K
214,239,6,2,20,8.56,3.01,-3.82,-0.32,-0.12,0.12,K
214,239,6,2,19,8.32,3.15,-3.81,-0.41,-0.25,0.21,K
216,240,7,2,20,8.41,3.21,-3.92,-0.19,0.00,0.09,K
215,241,6,4,20,8.03,3.45,-3.92,0.07,0.05,-0.01,K
215,239,9,3,21,8.16,3.03,-4.15,-0.03,-0.03,0.00,K
214,239,8,2,19,8.05,3.01,-4.18,-0.03,-0.10,0.05,K
215,238,14,2,20,8.12,2.88,-4.30,-0.11,-0.36,0.10,K
215,240,13,2,20,7.98,3.28,-4.06,-0.08,-0.04,0.13,K
215,240,13,2,20,7.81,2.65,-4.60,-0.23,-0.19,0.11,K
215,239,8,2,21,8.26,2.81,-4.18,0.16,0.21,0.01,K
214,239,8,1,19,8.25,2.68,-4.34,-0.01,0.01,-0.01,K
215,239,8,4,19,8.27,2.84,-4.10,0.31,0.40,-0.17,K
215,238,7,2,19,8.48,2.69,-3.77,0.48,0.50,-0.26,K
215,238,5,2,20,8.52,2.76,-3.30,0.37,0.29,-0.14,K
215,239,8,2,21,8.88,2.79,-3.10,0.35,0.21,-0.24,K
215,240,6,3,20,8.76,2.78,-3.31,0.19,0.03,-0.15,K
215,239,4,1,19,8.74,2.77,-3.27,0.12,-0.03,-0.03,K
215,239,9,2,20,8.74,2.92,-3.26,0.05,0.01,-0.05,K
215,239,8,3,20,8.65,2.92,-3.19,0.15,0.15,-0.09,K
214,240,5,2,20,9.10,2.73,-2.89,0.23,-0.03,-0.07,K
213,239,8,2,20,8.48,3.02,-3.09,0.32,0.09,-0.20,K
213,239,5,2,20,8.90,2.76,-3.35,0.21,-0.07,0.03,K
213,239,7,2,21,8.77,2.64,-3.26,0.13,-0.08,0.02,K
213,238,5,2,19,8.79,2.50,-3.50,0.03,-0.03,0.03,K
213,238,7,3,20,8.80,2.16,-3.88,-0.13,-0.13,0.04,K
212,239,7,4,20,8.39,2.50,-3.62,-0.21,-0.13,0.13,K
213,239,7,2,22,8.60,2.60,-3.60,-0.14,-0.11,0.20,K
213,238,5,2,21,8.68,2.65,-3.80,-0.07,-0.05,0.05,K
213,239,5,5,19,8.53,2.55,-3.69,-0.01,-0.04,-0.07,K
213,239,5,3,20,8.50,2.37,-3.82,-0.03,-0.00,-0.04,K
213,238,3,2,19,8.54,2.62,-3.77,0.02,-0.06,0.05,K
212,239,4,3,20,8.51,2.63,-3.57,-0.03,-0.02,0.01,K
227,242,2,2,18,0.14,7.46,-5.38,-0.05,-0.01,-0.02,L
227,243,2,1,19,0.04,7.47,-5.37,-0.04,-0.03,-0.01,L
227,242,3,2,19,0.17,7.40,-5.26,-0.03,-0.03,0.01,L
227,244,2,2,18,0.07,7.40,-5.46,-0.00,-0.01,0.02,L
227,243,2,3,18,0.34,7.87,-5.65,-0.03,0.05,-0.03,L
226,243,2,2,20,-0.17,7.16,-5.03,-0.09,0.16,-0.14,L
227,242,2,2,19,0.35,7.61,-5.43,0.17,0.03,0.01,L
228,244,3,4,19,0.65,6.66,-6.32,0.15,0.10,-0.01,L
228,243,2,1,19,0.60,7.22,-5.81,-0.29,-0.16,0.11,L
229,243,7,3,18,0.59,7.69,-5.13,-0.10,-0.19,0.13,L
228,243,2,1,18,0.18,8.01,-4.47,-0.13,-0.09,0.03,L
228,243,3,1,20,0.59,7.62,-5.11,-0.16,-0.08,-0.07,L
229,243,4,2,20,0.32,7.83,-4.72,0.05,-0.01,0.01,L
228,244,3,2,19,0.40,8.01,-4.81,-0.07,-0.03,0.10,L
228,243,2,1,20,0.68,7.96,-4.65,-0.00,-0.04,0.04,L
228,243,4,2,20,0.41,7.75,-5.18,-0.01,0.18,-0.09,L
229,243,4,2,20,0.28,7.79,-4.66,0.03,0.03,-0.02,L
228,244,3,1,19,0.61,7.73,-5.04,0.06,0.04,0.05,L
228,243,4,2,18,0.57,7.72,-5.02,0.03,-0.03,0.02,L
228,243,2,1,18,0.47,7.77,-4.92,-0.08,-0.17,0.08,L
228,243,4,2,21,0.37,7.91,-4.73,0.05,-0.03,0.04,L
229,243,5,1,20,0.23,7.90,-4.70,-0.12,-0.06,-0.10,L
229,242,3,2,19,0.09,7.96,-4.69,-0.02,-0.04,-0.01,L
229,243,2,2,18,0.25,7.93,-4.87,0.02,0.03,-0.00,L
226,243,2,2,20,0.31,7.80,-4.92,-0.03,-0.04,0.00,L
229,243,3,1,18,0.19,7.98,-4.75,-0.01,-0.06,0.02,L
228,243,4,1,20,0.29,7.91,-4.77,-0.04,-0.05,0.03,L
228,244,3,3,20,0.45,7.87,-4.84,-0.01,-0.00,-0.02,L
227,243,3,2,18,0.50,7.93,-4.73,-0.02,0.11,0.00,L
227,242,2,2,18,0.27,7.96,-4.92,-0.05,-0.04,-0.05,L
229,243,5,2,21,0.26,7.88,-4.61,-0.03,-0.07,-0.03,L
229,243,4,2,19,0.09,8.01,-4.49,0.01,0.05,0.02,L
227,242,3,0,18,0.91,8.13,-4.16,0.14,0.07,-0.11,L
228,243,1,3,20,0.03,6.56,-5.95,0.30,0.06,-0.16,L
228,243,3,2,20,-0.63,8.84,-4.36,-0.16,-1.31,0.20,L
228,243,4,1,19,-1.21,6.69,-6.90,0.24,-0.04,0.15,L
228,243,4,2,18,0.21,7.59,-5.17,-0.22,-0.17,0.20,L
228,243,4,2,18,-0.46,6.62,-5.48,0.31,-0.09,0.01,L
229,243,6,2,19,0.00,7.20,-6.31,-0.61,-0.23,0.03,L
227,244,3,1,19,-0.73,7.35,-5.15,-0.05,0.03,-0.01,L
228,244,1,1,19,-0.56,7.56,-5.66,-0.11,-0.04,-0.01,L
228,243,1,2,20,-0.49,7.18,-5.55,-0.04,0.00,0.11,L
228,243,4,1,20,-0.28,7.53,-5.20,-0.27,0.00,0.01,L
229,243,6,1,18,-0.24,7.43,-5.18,-0.07,-0.22,0.11,L
228,243,4,2,20,-0.34,7.67,-4.85,-0.00,-0.10,0.19,L
228,243,5,3,21,-0.29,7.64,-4.81,0.08,-0.00,0.05,L
227,243,2,2,19,-0.22,7.69,-5.04,0.00,-0.00,0.03,L
228,243,5,2,19,0.02,7.69,-5.15,-0.01,-0.06,0.00,L
228,243,2,0,18,-0.13,7.79,-4.93,-0.03,-0.05,-0.05,L
228,243,1,2,20,-0.03,7.80,-4.97,-0.05,-0.05,-0.02,L
228,243,4,2,19,-0.17,7.81,-5.11,0.04,0.03,0.02,L
228,243,1,2,20,0.08,7.42,-5.13,0.10,-0.02,0.08,L
229,243,4,3,20,0.33,7.34,-5.51,0.24,0.03,0.12,L
228,245,3,2,18,0.40,7.05,-5.91,0.10,0.02,0.01,L
227,244,2,1,19,0.30,7.15,-5.98,0.05,-0.03,0.02,L
227,243,1,2,20,0.44,7.11,-5.79,-0.02,-0.02,0.02,L
227,243,1,2,19,0.58,7.03,-5.78,-0.04,-0.06,-0.00,L
227,242,2,2,18,0.36,7.06,-5.94,0.02,-0.07,-0.03,L
228,243,2,2,19,0.31,7.08,-5.82,-0.08,-0.05,0.05,L
227,244,2,3,19,0.49,7.02,-5.98,-0.03,-0.09,0.02,L
228,243,1,4,19,0.37,6.96,-5.60,-0.14,-0.03,-0.09,L
227,242,1,2,18,0.59,7.04,-5.50,-0.00,0.01,0.04,L
227,243,2,1,19,0.28,6.88,-5.88,0.01,-0.03,-0.03,L
227,244,2,1,19,0.73,7.25,-5.84,0.07,0.03,0.04,L
227,244,3,2,19,0.49,7.17,-5.80,-0.00,0.02,-0.08,L
228,243,1,2,19,0.38,6.93,-5.82,0.01,0.10,-0.04,L
227,243,1,2,18,0.51,6.85,-6.31,0.02,0.11,0.03,L
228,243,3,2,19,0.39,7.07,-5.78,-0.04,-0.07,-0.00,L
227,243,2,1,19,0.64,7.09,-5.77,-0.03,-0.09,0.04,L
179,160,4,2,22,0.33,8.07,-4.75,0.04,-0.08,-0.08,M
176,159,3,3,20,0.18,8.03,-4.16,-0.08,-0.01,0.01,M
176,159,2,2,20,0.44,8.14,-4.49,-0.05,0.06,0.08,M
178,160,3,4,19,0.13,8.09,-4.55,0.02,-0.01,-0.02,M
179,160,4,3,22,0.47,8.24,-4.40,0.02,0.03,0.02,M
179,160,3,4,20,0.43,8.14,-4.36,-0.06,0.01,-0.01,M
178,160,2,4,19,0.45,8.16,-4.57,-0.01,-0.03,0.04,M
178,161,3,4,19,0.63,8.19,-4.31,-0.04,-0.08,0.01,M
179,160,3,4,19,0.21,8.19,-4.36,0.02,-0.04,0.04,M
180,160,2,4,20,0.61,8.07,-4.61,-0.00,0.06,0.00,M
180,160,3,2,21,0.67,8.13,-4.49,-0.02,-0.07,0.02,M
181,159,3,2,21,0.33,8.06,-4.39,0.04,-0.04,0.03,M
178,161,2,3,22,0.61,8.08,-4.41,-0.03,0.03,0.01,M
178,160,2,3,20,0.60,8.13,-4.44,-0.02,0.02,0.03,M
178,160,2,3,20,0.75,8.03,-4.54,-0.04,0.05,0.01,M
178,161,2,4,22,0.72,8.10,-4.47,-0.03,-0.02,0.00,M
180,160,4,3,20,0.72,8.23,-4.42,-0.04,-0.03,-0.01,M
178,160,3,2,21,0.56,8.10,-4.40,-0.01,-0.05,0.02,M
179,161,2,4,19,0.53,8.04,-4.53,-0.09,0.00,-0.01,M
179,161,4,3,21,0.57,8.21,-4.55,0.02,0.02,0.06,M
178,161,2,4,21,0.62,8.09,-4.77,-0.07,-0.03,-0.01,M
180,161,4,3,22,0.29,8.19,-4.40,-0.06,-0.15,0.02,M
179,160,3,3,20,0.49,8.30,-4.32,-0.02,-0.06,-0.02,M
179,162,4,3,21,0.41,8.05,-4.11,-0.03,-0.02,-0.03,M
178,161,3,5,21,0.51,8.31,-4.29,0.02,-0.01,0.05,M
180,160,2,2,21,0.43,8.15,-4.38,-0.03,-0.03,-0.02,M
179,161,2,4,21,0.34,8.16,-4.32,-0.05,-0.05,0.03,M
178,161,2,3,20,0.69,8.09,-4.50,-0.11,-0.03,0.06,M
180,161,2,3,20,0.34,8.18,-4.04,0.04,0.02,-0.05,M
179,161,3,4,21,0.23,8.21,-4.41,-0.05,0.03,0.02,M
180,161,2,3,20,0.62,8.13,-4.29,-0.04,0.03,0.04,M
180,161,1,3,21,0.29,8.10,-4.47,-0.07,-0.01,-0.17,M
180,161,3,3,20,0.66,8.28,-4.53,-0.01,-0.06,0.04,M
180,160,3,2,21,0.11,8.17,-4.35,-0.02,-0.07,-0.02,M
180,162,2,3,20,0.39,8.22,-4.33,-0.01,-0.03,0.00,M
178,159,2,3,20,0.38,8.39,-4.16,-0.00,0.03,-0.00,M
179,162,3,4,19,0.53,8.43,-3.58,-0.10,0.04,-0.10,M
180,161,3,1,20,0.43,8.36,-3.57,0.01,0.00,-0.04,M
180,160,2,2,21,0.33,8.40,-4.03,0.01,-0.01,0.05,M
182,161,2,2,20,0.47,8.36,-4.19,0.05,0.02,0.02,M
181,161,3,2,20,0.56,8.22,-4.29,0.08,0.01,0.02,M
181,161,1,3,19,0.72,8.79,-4.58,0.06,-0.22,-0.06,M
181,162,5,3,22,-0.12,7.75,-4.33,-0.13,-0.01,-0.08,M
181,161,3,3,21,0.26,8.26,-4.50,-0.05,0.07,0.03,M
180,162,2,6,19,0.13,8.15,-4.31,-0.03,-0.07,-0.00,M
181,162,2,4,19,0.12,8.32,-4.42,-0.04,-0.04,-0.01,M
180,161,2,4,21,-0.04,8.17,-4.35,-0.06,-0.04,-0.03,M
183,162,5,2,20,-0.04,8.15,-4.18,-0.04,-0.03,0.01,M
180,162,2,3,21,0.14,8.28,-4.36,0.00,0.00,0.03,M
181,162,2,4,19,0.23,8.16,-4.22,-0.03,0.02,0.01,M
181,161,1,2,20,0.18,8.31,-4.34,-0.05,-0.01,0.02,M
181,161,3,2,21,0.18,8.17,-4.42,-0.01,0.00,0.00,M
181,162,2,2,20,0.06,8.13,-4.33,-0.03,0.02,0.04,M
181,162,3,2,21,0.41,8.27,-4.30,0.03,0.03,0.04,M
181,162,3,4,21,0.29,7.90,-4.27,-0.01,0.07,0.06,M
181,161,1,2,21,0.62,8.03,-4.38,0.05,0.03,0.10,M
179,163,3,4,19,0.75,8.45,-4.62,0.01,0.01,0.12,M
180,162,2,3,20,0.91,8.03,-4.54,-0.04,0.01,0.04,M
180,162,2,4,20,1.06,8.15,-4.52,-0.01,-0.06,0.00,M
181,161,2,2,20,0.36,8.03,-4.36,-0.07,0.02,-0.02,M
180,161,3,4,20,1.16,8.12,-4.80,-0.07,0.03,-0.05,M
181,164,3,5,19,0.92,7.95,-4.50,-0.01,-0.08,0.00,M
181,163,1,3,21,0.92,8.11,-4.54,-0.05,-0.01,-0.06,M
179,162,3,3,21,0.69,8.09,-4.41,-0.03,-0.02,0.03,M
181,162,4,3,22,0.57,8.21,-4.51,-0.03,0.03,-0.04,M
180,162,3,4,21,0.85,8.13,-4.30,-0.01,0.04,0.01,M
180,163,3,4,19,0.74,8.11,-4.56,-0.02,-0.01,-0.01,M
180,162,2,4,19,0.88,8.27,-4.30,-0.04,0.02,0.02,M
180,163,2,3,20,0.61,8.14,-4.27,-0.04,-0.04,-0.01,M
182,162,4,3,22,0.67,8.22,-4.44,-0.01,0.02,-0.06,M
181,162,2,2,21,0.76,8.17,-4.37,-0.03,-0.04,-0.02,M
182,162,1,2,20,0.40,8.21,-4.31,-0.03,0.02,0.01,M
181,163,4,3,21,0.53,8.26,-4.44,0.04,-0.00,-0.03,M
181,163,5,3,22,0.75,8.13,-4.27,-0.02,0.02,0.01,M
181,163,2,1,20,0.73,8.30,-4.28,0.02,-0.03,-0.02,M
182,164,3,4,19,0.66,8.13,-4.43,-0.01,-0.01,-0.01,M
182,163,2,2,20,0.77,8.19,-4.33,-0.05,0.03,0.00,M
224,175,2,3,20,-0.25,9.19,-2.16,0.01,-0.03,-0.01,N
225,175,3,1,20,-0.14,9.33,-2.09,0.00,0.00,-0.01,N
226,175,2,3,21,-0.20,9.25,-2.20,-0.02,-0.02,0.01,N
225,174,3,2,21,-0.22,9.22,-2.13,-0.02,-0.01,0.00,N
225,174,2,3,20,-0.15,9.27,-2.12,-0.02,-0.00,0.02,N
225,174,3,3,21,-0.16,9.31,-2.18,-0.04,-0.03,0.02,N
224,174,3,3,23,-0.17,9.40,-1.98,0.03,-0.04,0.05,N
225,174,3,2,19,0.04,9.38,-1.89,-0.06,0.00,0.05,N
225,174,2,3,20,-0.22,9.24,-2.38,0.02,0.01,-0.00,N
226,176,2,4,19,-0.30,9.25,-2.25,0.01,-0.01,-0.04,N
224,175,0,3,22,-0.20,9.29,-2.14,-0.04,0.05,-0.07,N
224,175,2,3,20,-0.30,9.12,-2.34,0.00,-0.01,-0.02,N
224,175,3,3,19,-0.26,9.25,-2.32,-0.04,-0.02,0.01,N
225,175,2,4,20,-0.23,9.27,-2.09,-0.01,-0.05,0.03,N
225,175,2,3,20,-0.30,9.27,-2.09,-0.04,-0.04,0.03,N
226,175,2,1,20,-0.20,9.25,-2.27,-0.07,-0.03,0.01,N
226,176,2,4,20,-0.10,9.22,-2.22,0.04,-0.07,0.03,N
228,175,4,2,22,-0.11,9.28,-2.14,-0.01,-0.07,0.03,N
228,174,1,3,19,-0.20,9.26,-2.19,-0.03,-0.05,0.03,N
227,174,1,2,21,-0.11,9.31,-2.05,-0.01,-0.01,-0.01,N
228,176,1,2,21,-0.20,9.26,-2.12,0.00,-0.00,-0.01,N
227,176,2,4,19,-0.23,9.20,-2.09,-0.04,-0.01,0.00,N
228,175,1,3,23,-0.11,9.36,-2.09,0.01,-0.01,0.02,N
224,175,2,3,21,-0.37,9.22,-2.25,-0.01,0.04,0.01,N
226,175,2,4,20,-0.05,9.40,-2.18,-0.00,-0.02,-0.02,N
226,175,2,4,19,-0.27,9.16,-2.25,-0.00,-0.03,0.02,N
225,175,2,3,20,-0.26,9.23,-2.05,0.01,-0.04,-0.01,N
224,176,2,3,22,-0.37,9.34,-1.87,-0.04,0.01,0.02,N
226,175,2,3,20,-0.27,9.27,-1.93,-0.02,-0.02,-0.03,N
226,175,1,3,22,-0.41,9.18,-2.32,-0.11,0.06,0.01,N
227,175,4,3,20,-0.08,9.16,-2.15,0.01,0.01,-0.02,N
225,175,2,3,20,-0.11,9.18,-2.39,0.02,-0.08,0.01,N
226,176,3,2,20,-0.28,9.24,-2.41,0.01,-0.03,0.03,N
225,176,2,4,22,-0.18,9.17,-2.57,-0.08,0.02,-0.01,N
224,175,2,3,20,-0.20,9.33,-2.23,0.06,-0.10,-0.03,N
226,175,5,3,22,-0.35,9.28,-2.10,-0.00,-0.05,-0.10,N
223,176,2,3,20,-0.43,9.22,-2.26,-0.11,0.03,0.06,N
226,177,2,5,19,-0.41,9.33,-2.11,-0.03,0.00,0.01,N
225,176,1,2,22,-0.61,9.25,-1.99,-0.07,-0.02,-0.02,N
226,175,2,3,20,-0.10,9.23,-2.01,0.01,-0.06,0.04,N
225,174,2,2,20,-0.65,9.38,-1.89,-0.04,0.04,0.09,N
227,176,2,2,21,-0.40,9.29,-2.04,0.03,-0.00,-0.04,N
226,175,2,2,21,-0.06,9.11,-2.27,-0.03,0.00,-0.00,N
225,175,2,3,20,-0.14,9.26,-2.33,-0.02,-0.03,-0.02,N
225,174,2,3,20,-0.23,9.03,-2.13,-0.04,-0.05,-0.03,N
226,176,2,4,20,-0.15,9.30,-2.37,-0.00,0.03,0.03,N
225,174,4,2,21,-0.30,9.22,-2.34,-0.02,0.01,0.01,N
225,175,2,3,20,-0.42,9.18,-2.22,-0.01,-0.03,-0.00,N
225,175,1,3,22,-0.34,9.25,-2.28,-0.05,0.01,0.00,N
226,176,2,3,20,-0.21,9.15,-2.34,-0.01,-0.00,0.00,N
226,176,4,3,22,-0.20,9.27,-2.29,0.00,-0.03,-0.00,N
225,175,2,1,20,-0.22,9.17,-2.28,0.05,0.01,-0.02,N
225,175,3,4,19,-0.28,9.18,-2.39,-0.02,-0.02,0.04,N
225,176,1,2,20,-0.54,9.28,-2.49,0.04,-0.09,0.01,N
225,176,1,1,20,-0.26,9.17,-2.42,0.01,-0.01,0.02,N
225,175,4,3,18,-0.18,9.12,-2.38,-0.03,-0.02,0.05,N
226,176,4,2,20,-0.27,9.24,-2.55,-0.05,-0.05,0.03,N
225,176,2,2,20,-0.21,9.11,-2.49,-0.03,-0.10,0.01,N
225,176,1,3,21,-0.30,9.16,-2.19,0.01,0.01,0.05,N
226,176,0,2,18,-0.24,9.10,-2.54,-0.02,-0.08,0.04,N
225,175,2,1,19,-0.23,9.14,-2.46,-0.02,-0.11,0.02,N
225,175,2,2,20,-0.07,9.17,-2.33,0.01,-0.04,0.06,N
224,176,2,2,19,-0.28,9.25,-2.39,-0.04,0.00,0.01,N
225,176,1,3,20,-0.28,9.17,-2.43,0.01,-0.05,0.01,N
218,173,4,5,23,-1.39,8.91,-2.74,-0.02,-0.01,0.00,N
219,172,6,4,24,-1.29,8.92,-2.73,-0.02,-0.01,-0.02,N
219,173,5,7,25,-1.40,8.94,-2.57,-0.02,-0.00,0.01,N
219,173,5,5,24,-1.29,8.89,-2.72,-0.03,-0.02,-0.00,N
220,171,6,3,23,-1.28,8.85,-2.69,-0.01,-0.01,0.02,N
218,173,4,3,24,-1.30,8.95,-2.79,-0.03,-0.02,0.00,N
219,174,4,6,24,-1.24,8.80,-2.89,-0.02,-0.02,-0.01,N
222,173,4,5,23,-1.32,8.84,-2.87,-0.03,-0.05,-0.01,N
223,173,4,5,23,-1.38,8.99,-2.60,-0.02,-0.05,-0.02,N
227,171,6,3,26,-1.30,8.83,-2.78,-0.01,-0.00,0.01,N
229,172,5,6,25,-1.56,8.86,-2.82,-0.02,-0.04,-0.01,N
231,172,5,6,25,-1.46,8.98,-2.64,-0.04,-0.01,-0.03,N
230,171,4,5,23,-1.49,8.94,-2.76,-0.04,-0.00,0.01,N
230,173,6,5,24,-1.45,8.85,-2.63,-0.02,-0.01,0.01,N
230,173,4,5,23,-1.50,8.96,-2.66,-0.02,-0.03,0.00,N
231,174,3,6,25,-1.51,9.04,-2.61,0.01,-0.04,0.01,N
230,173,5,5,24,-1.43,8.92,-2.53,-0.03,-0.04,-0.00,N
230,173,5,5,25,-1.46,9.00,-2.50,-0.04,-0.01,0.01,N
232,173,6,5,26,-1.48,9.03,-2.48,-0.00,-0.02,0.02,N
231,173,6,5,26,-1.61,9.02,-2.45,-0.06,0.09,0.03,N
231,172,5,5,25,-1.46,9.12,-2.36,-0.08,1.23,0.24,N
230,174,3,6,25,0.66,9.27,-2.34,-0.03,0.79,0.33,N
227,172,3,6,24,2.40,8.90,-2.75,-0.06,0.23,0.16,N
227,174,5,6,25,2.05,9.12,-2.64,-0.07,0.34,0.08,N
226,173,4,5,25,2.13,9.04,-2.23,0.02,-0.11,-0.01,N
227,174,5,6,25,2.05,9.12,-2.46,0.02,-0.02,0.00,N
226,173,6,7,26,1.74,9.00,-2.77,0.01,-0.03,0.00,N
226,174,5,4,24,1.61,9.03,-2.72,0.02,-0.23,-0.06,N
225,175,5,6,25,1.05,9.00,-2.71,0.00,-0.16,-0.03,N
224,175,5,5,23,1.16,9.07,-2.89,0.00,-0.44,-0.01,N
225,174,5,5,25,0.71,8.85,-2.92,0.05,-0.30,0.01,N
226,175,3,8,23,0.97,8.72,-2.72,0.08,-0.47,-0.00,N
225,174,5,5,25,1.33,9.03,-3.55,0.13,-0.28,0.03,N
227,172,4,6,25,-0.18,8.61,-3.58,0.09,-0.18,-0.09,N
227,174,5,6,25,-0.37,8.79,-3.76,0.06,-0.20,-0.01,N
225,173,5,5,24,-0.20,8.40,-3.87,0.07,-0.08,-0.02,N
225,174,5,6,26,-0.34,8.41,-4.11,0.03,-0.04,0.01,N
226,175,6,3,26,-0.41,8.49,-4.01,0.02,-0.04,0.01,N
225,175,5,7,24,-0.40,8.46,-4.03,-0.00,-0.08,-0.02,N
224,175,5,5,25,-0.35,8.28,-4.06,-0.02,0.01,0.02,N
225,175,3,6,25,-0.25,8.44,-3.95,-0.02,-0.03,0.02,N
224,174,4,4,22,-0.05,8.37,-4.18,-0.01,-0.02,0.04,N
224,174,4,5,23,-0.19,8.29,-4.23,0.07,0.39,0.25,N
225,176,3,8,25,-0.16,8.31,-4.17,-0.07,0.21,0.14,N
226,175,5,5,26,3.46,8.24,-4.09,0.01,1.21,0.10,N
224,175,5,5,26,2.69,8.21,-3.53,-0.04,0.72,0.20,N
223,174,5,4,24,3.08,8.15,-3.80,0.03,0.13,0.02,N
224,175,5,5,24,3.23,8.19,-3.56,-0.05,0.23,0.06,N
225,175,4,6,27,3.13,8.26,-3.33,-0.04,0.04,0.02,N
225,175,5,7,25,3.62,8.23,-3.27,-0.03,-0.01,0.00,N
223,176,4,8,24,3.62,8.23,-3.29,-0.00,-0.01,0.02,N
224,176,4,5,22,3.38,8.32,-3.24,-0.05,-0.04,-0.00,N
224,175,4,5,23,4.79,8.06,-2.79,-0.19,0.41,0.16,N
223,174,6,4,24,4.53,8.18,-2.47,0.03,-0.08,-0.01,N
223,176,5,6,25,4.78,8.13,-2.44,-0.02,-0.08,-0.02,N
223,175,5,5,25,4.53,8.16,-2.74,0.02,-0.03,-0.01,N
224,176,4,5,23,4.51,8.06,-2.85,-0.01,-0.11,-0.00,N
225,176,5,5,25,4.44,8.09,-2.83,0.01,-0.11,-0.03,N
222,175,4,5,22,4.53,8.14,-2.96,-0.00,-0.09,-0.01,N
224,175,5,5,25,4.00,8.23,-2.89,-0.01,-0.04,-0.00,N
223,174,5,6,25,4.29,8.04,-2.98,-0.02,-0.09,-0.02,N
222,175,5,5,23,4.21,8.06,-2.99,-0.04,-0.20,-0.06,N
224,176,6,3,26,4.30,8.15,-3.17,-0.03,0.28,0.05,N
223,175,6,6,26,4.02,8.21,-2.99,0.02,-0.19,-0.04,N
223,175,6,3,26,4.02,8.17,-3.21,-0.02,-0.02,0.00,N
222,174,5,4,25,3.92,8.16,-3.18,-0.03,-0.02,-0.01,N
221,175,4,5,25,4.02,8.21,-3.17,-0.01,-0.01,0.01,N
222,176,4,5,24,3.90,8.24,-3.15,-0.03,-0.04,-0.01,N
221,176,5,5,25,3.79,8.22,-3.15,-0.03,-0.05,-0.03,N
223,174,3,6,25,3.78,8.24,-3.12,-0.00,-0.04,0.00,N
222,176,3,5,25,3.86,8.22,-3.14,-0.02,0.01,0.00,N
222,175,4,5,23,3.76,8.12,-3.22,-0.02,-0.03,0.00,N
224,175,7,7,26,3.74,8.18,-3.17,-0.02,-0.02,0.01,N
222,175,4,5,23,3.80,8.26,-3.13,-0.01,-0.04,0.00,N
222,174,4,5,25,3.78,8.23,-3.22,0.02,-0.04,-0.01,N
221,173,5,5,23,3.80,8.15,-3.25,-0.03,0.00,0.00,N
221,174,5,6,25,3.75,8.18,-3.20,0.00,0.00,0.01,N
220,175,6,6,23,3.66,8.18,-3.22,-0.03,-0.02,-0.00,N
221,174,3,6,25,3.75,8.09,-3.33,-0.03,-0.02,0.01,N
221,174,5,5,26,3.75,8.27,-3.22,-0.04,0.01,-0.01,N
222,174,7,3,25,3.68,8.19,-3.26,-0.05,-0.01,-0.00,N
221,175,6,3,24,3.91,8.19,-3.08,-0.01,-0.02,-0.01,N
220,174,4,7,26,3.79,8.19,-3.19,0.01,0.00,0.05,N
221,175,3,6,25,3.84,8.17,-3.23,-0.03,0.06,-0.01,N
221,175,5,5,24,3.59,8.27,-2.71,-0.11,0.09,-0.04,N
219,176,3,7,25,3.57,8.30,-2.79,0.01,0.02,0.03,N
220,175,4,5,22,3.73,8.43,-2.23,0.13,0.01,-0.08,N
220,175,4,5,23,3.82,8.32,-2.85,-0.13,0.01,0.18,N
219,174,7,6,25,4.99,8.01,-2.88,-0.07,0.03,0.07,N
221,175,8,3,28,4.42,8.07,-2.95,-0.01,0.02,-0.08,N
221,175,6,3,26,4.25,8.23,-2.87,-0.08,0.05,0.03,N
220,175,6,3,26,4.79,8.19,-2.55,0.07,-0.09,-0.15,N
220,174,5,6,25,4.13,8.35,-2.81,0.04,-0.15,0.03,N
219,175,4,5,24,4.47,7.74,-3.79,0.10,-0.19,-0.12,N
218,176,6,4,23,3.50,8.05,-3.00,-0.01,-0.03,-0.03,N
218,176,4,5,23,4.09,7.95,-3.50,0.01,-0.02,-0.06,N
219,176,3,6,27,3.47,8.03,-3.27,-0.03,0.05,0.05,N
219,176,3,6,25,3.85,8.33,-2.65,-0.03,0.13,-0.08,N
217,176,6,3,28,3.70,8.10,-3.72,-0.07,0.01,0.05,N
213,144,1,1,15,-0.16,9.40,-0.95,-0.00,-0.12,0.01,N
214,144,2,2,17,-0.44,9.39,-1.39,0.08,0.08,-0.12,N
214,144,1,2,15,-0.74,9.62,-1.45,0.05,0.02,0.03,N
214,145,2,1,16,-0.66,9.39,-1.22,0.01,-0.00,0.02,N
215,147,1,5,16,-0.71,9.68,-0.93,0.01,-0.11,0.06,N
211,148,1,4,15,-0.38,9.83,-1.04,0.07,0.00,-0.01,N
210,149,0,1,14,-0.69,9.77,-1.65,0.06,-0.08,-0.01,N
206,149,2,2,14,0.27,9.21,-2.11,0.09,0.04,-0.09,N
202,150,2,2,14,-0.93,8.85,-2.18,0.20,-0.05,-0.14,N
203,150,2,2,14,-1.93,9.88,-1.63,-0.24,-0.27,-0.11,N
202,156,2,3,26,-1.85,9.45,-1.22,0.85,0.40,0.12,N
201,161,1,2,33,-1.38,8.89,-2.26,-0.30,-0.20,0.07,N
202,161,0,2,91,-1.13,9.37,-3.30,-0.56,-0.04,-0.17,N
210,156,1,2,40,0.07,8.96,-2.36,0.33,0.15,-0.09,N
208,160,2,1,28,-2.84,9.05,0.27,-0.89,-0.82,-0.51,N
203,186,3,5,24,-0.88,7.83,-4.82,1.34,0.29,0.34,N
207,158,2,4,17,-0.65,7.73,-6.02,-0.10,1.16,0.69,N
217,152,1,2,20,-0.00,7.49,-5.17,0.17,-0.04,-0.13,N
218,153,1,1,21,0.12,7.25,-5.35,0.07,-0.11,-0.13,N
211,156,4,0,22,-0.51,7.46,-5.04,-0.21,-0.41,-0.04,N
202,182,2,3,21,-1.84,7.36,-5.01,0.29,-0.53,-0.14,N
199,168,1,2,76,-1.65,6.99,-6.17,-0.09,0.97,0.54,N
212,161,4,2,28,3.11,7.79,-4.77,-0.27,-0.35,0.14,N
217,159,2,2,24,-0.20,8.27,-4.77,0.29,-0.10,-0.12,N
217,161,1,2,21,1.52,7.57,-5.53,-0.20,0.20,0.48,N
218,162,2,2,19,1.41,8.74,-3.37,-0.30,0.41,0.22,N
222,161,2,2,19,2.15,8.23,-4.07,-0.14,0.08,0.04,N
219,160,3,3,20,-1.13,8.83,-4.68,0.12,0.80,0.39,N
220,156,1,1,19,5.07,6.54,-4.75,-0.01,2.16,-0.24,N
221,151,1,2,20,4.26,8.94,-1.40,0.18,0.78,-0.36,N
223,153,2,3,24,7.27,7.85,-2.08,0.07,0.94,0.11,N
223,152,2,4,19,5.72,7.35,-1.02,-0.14,-0.98,-0.03,N
220,156,4,2,32,0.00,8.05,-1.81,0.39,-5.39,-0.72,N
218,157,2,1,19,5.09,7.83,-3.43,0.27,2.92,0.50,N
220,156,2,1,20,5.32,7.93,-2.49,0.17,1.12,-0.03,N
222,154,3,2,20,7.18,7.29,-1.25,-0.11,0.97,-0.07,N
224,155,2,3,19,6.36,7.66,-0.21,-0.18,-0.27,-0.06,N
222,155,2,2,20,6.47,7.82,-0.18,0.00,0.07,0.04,N
224,154,1,1,19,6.99,7.64,-1.01,-0.05,-1.51,-0.16,N
221,155,3,2,21,3.52,7.75,-3.24,-0.85,-4.74,-0.41,N
220,154,2,1,21,1.71,8.71,-2.29,-0.33,-1.74,-0.03,N
218,155,2,2,18,2.04,8.74,-1.32,-0.37,-0.89,-0.06,N
219,156,3,3,20,0.07,9.26,-1.40,-0.16,-0.60,0.00,N
219,156,2,3,19,0.20,9.79,-1.30,-0.16,-0.39,-0.04,N
221,155,4,2,22,1.20,10.04,-1.15,-0.04,0.14,0.06,N
223,155,2,2,22,0.70,9.51,-1.22,0.00,-0.03,-0.09,N
223,157,2,1,19,0.66,9.55,-1.48,0.01,0.06,-0.10,N
222,156,3,2,21,1.62,9.63,-0.60,-0.02,0.15,-0.42,N
221,157,3,1,19,0.04,9.68,-2.10,0.14,0.65,-0.19,N
220,158,3,4,19,2.31,7.59,-1.94,0.41,0.56,-0.24,N
219,158,3,2,20,0.16,8.03,-3.85,0.30,-0.40,0.05,N
218,158,2,2,19,-0.20,8.32,-4.33,0.34,-0.23,0.30,N
215,160,2,1,20,0.43,8.49,-5.06,0.08,0.01,0.11,N
217,159,3,2,22,0.50,8.34,-4.11,-0.19,0.05,0.04,N
216,158,3,2,20,0.81,8.38,-3.82,-0.03,0.03,0.05,N
217,160,3,1,20,0.86,8.21,-4.13,0.02,-0.02,-0.01,N
216,159,4,2,21,0.71,8.44,-4.24,0.02,-0.09,-0.03,N
217,159,2,2,20,0.34,8.49,-3.84,-0.05,-0.02,0.05,N
220,160,3,2,20,0.78,8.70,-3.76,-0.08,-0.02,0.06,N
221,159,3,2,20,-0.06,8.91,-3.89,-0.02,-0.31,-0.15,N
221,160,1,2,20,0.11,8.71,-3.17,0.11,-0.30,0.06,N
221,160,3,2,22,0.45,7.33,-4.00,-0.11,-0.15,0.18,N
221,161,1,2,21,1.17,8.47,-4.17,0.06,-0.24,-0.01,N
222,161,2,1,20,0.55,8.66,-4.02,-0.08,0.06,0.04,N
223,160,3,2,22,0.71,8.39,-3.81,-0.08,-0.03,-0.01,N
222,160,3,2,20,0.29,8.54,-3.72,0.01,-0.05,-0.02,N
222,161,3,1,20,0.61,8.44,-3.90,0.04,-0.04,-0.09,N
223,160,4,3,20,0.12,8.52,-4.08,0.01,-0.05,-0.03,N
222,161,2,3,19,0.39,8.55,-3.99,-0.03,-0.01,-0.03,N
221,160,3,2,21,0.52,8.54,-3.89,0.03,0.05,0.03,N
224,160,3,3,21,0.38,8.36,-4.25,-0.07,-0.01,-0.01,N
226,163,2,2,20,0.39,8.63,-3.88,-0.09,-0.01,-0.13,N
227,163,1,3,21,-0.03,8.62,-3.64,-0.12,0.08,-0.17,N
229,164,4,2,22,-0.08,8.55,-3.29,-0.12,0.09,-0.13,N
232,164,3,2,21,-0.91,8.78,-3.43,0.14,0.07,-0.10,N
231,164,3,2,20,-0.34,8.63,-3.89,-0.03,0.07,0.01,N
229,165,2,2,20,-0.41,8.59,-3.56,-0.00,0.03,0.05,N
229,164,4,2,21,0.00,8.49,-4.01,0.02,0.01,0.02,N
229,165,3,1,21,-0.38,8.47,-3.75,-0.03,-0.01,-0.01,N
228,164,2,2,21,-0.08,8.65,-3.86,-0.05,-0.01,0.01,N
228,165,4,3,22,-0.16,8.41,-4.05,0.00,-0.01,0.03,N
229,165,3,2,22,0.04,8.70,-3.81,-0.12,0.08,0.14,N
225,165,2,3,21,0.44,8.39,-3.22,0.11,-0.02,-0.01,N
225,164,1,2,21,-0.30,8.66,-3.99,0.07,-0.03,-0.08,N
225,167,2,3,21,-0.26,8.45,-3.93,0.01,-0.01,0.02,N
225,166,1,2,23,0.01,8.50,-3.77,0.01,-0.06,-0.02,N
224,166,2,2,20,-0.13,8.27,-4.02,-0.02,0.02,-0.04,N
224,166,1,2,21,-0.69,8.40,-3.92,0.02,0.04,-0.17,N
222,167,2,3,20,-0.89,8.36,-4.12,0.08,0.02,-0.01,N
222,166,2,2,20,-0.65,8.56,-4.03,-0.22,0.02,0.09,N
223,167,2,3,21,-0.39,8.19,-4.24,0.01,-0.03,0.05,N
221,166,1,3,21,-0.78,8.35,-4.12,-0.00,-0.05,-0.02,N
222,166,2,2,21,-0.53,8.41,-3.97,-0.00,-0.03,-0.03,N
223,167,5,3,22,-0.54,8.39,-4.05,-0.02,0.03,-0.01,N
222,167,4,1,20,-0.61,8.33,-4.08,-0.03,-0.00,0.01,N
222,166,3,0,21,-0.39,8.45,-3.93,-0.04,-0.00,0.03,N
221,167,3,1,20,-0.41,8.48,-3.95,-0.03,0.02,0.05,N
221,166,3,4,21,-0.29,8.53,-4.03,-0.05,0.03,0.03,N
221,168,3,4,19,-0.20,8.55,-3.78,-0.11,-0.06,0.04,N
220,168,3,5,19,-0.09,8.60,-3.75,-0.06,-0.02,0.02,N
220,168,3,2,21,-0.27,8.68,-3.72,-0.09,-0.01,0.07,N
219,167,2,3,20,0.25,8.77,-3.40,-0.14,-0.04,0.09,N
218,167,2,3,21,0.33,8.77,-3.21,-0.06,-0.04,0.06,N
219,166,3,2,21,0.56,8.83,-3.18,-0.07,-0.03,0.02,N
218,166,3,2,20,0.14,8.89,-3.27,-0.00,-0.05,-0.01,N
218,167,2,1,21,0.39,8.55,-3.31,0.09,0.06,0.01,N
218,167,4,3,22,0.12,9.00,-3.31,-0.05,-0.06,-0.00,N
217,166,3,2,21,0.57,8.78,-3.21,-0.07,0.02,0.03,N
217,168,2,1,21,0.42,8.91,-3.06,-0.05,-0.00,0.01,N
217,168,4,3,23,0.37,8.94,-3.00,-0.03,-0.03,-0.00,N
217,167,4,3,22,0.61,8.81,-3.18,-0.02,-0.01,-0.00,N
216,167,3,1,21,0.38,9.00,-2.95,-0.09,-0.03,-0.04,N
216,166,3,3,21,0.51,8.93,-2.96,-0.04,-0.02,-0.02,N
216,167,4,3,20,0.49,9.00,-2.96,-0.04,0.01,0.02,N
215,167,2,2,20,0.40,9.05,-2.73,-0.08,0.00,0.02,N
216,167,3,3,21,0.66,9.05,-2.73,-0.02,-0.03,0.03,N
215,167,1,2,21,0.43,9.09,-2.75,-0.01,-0.01,-0.04,N
215,168,4,3,22,0.62,9.00,-2.64,0.04,-0.03,-0.02,N
215,168,3,4,21,0.34,9.08,-3.17,0.06,0.00,-0.08,N
214,166,3,2,21,0.56,8.85,-3.09,0.03,-0.05,0.02,N
215,168,4,3,21,0.40,8.97,-2.94,0.04,-0.01,-0.03,N
214,167,2,2,21,0.23,8.94,-3.26,0.04,-0.01,-0.05,N
215,168,3,3,21,0.13,8.81,-3.24,0.03,0.05,0.02,N
215,166,4,2,21,0.35,8.92,-3.23,0.08,-0.01,0.02,N
215,168,4,3,21,0.20,8.75,-3.42,0.00,0.01,-0.02,N
214,167,3,4,22,0.12,8.60,-3.54,0.11,-0.04,-0.10,N
213,169,3,3,21,-0.16,8.50,-3.93,0.11,-0.04,-0.09,N
212,169,3,3,21,0.01,8.43,-3.99,-0.03,0.00,0.00,N
219,176,6,5,26,4.01,8.04,-3.02,0.04,-0.04,-0.05,N
217,176,5,6,24,4.08,8.13,-3.03,0.08,-0.04,0.02,N
219,175,8,3,26,3.85,8.25,-3.56,-0.04,-0.09,-0.06,N
215,176,5,5,23,3.58,7.94,-3.12,-0.02,0.03,-0.04,N
217,176,5,5,25,3.21,8.16,-3.28,-0.01,0.03,-0.22,N
216,175,4,6,26,5.06,7.95,-3.24,-0.03,-0.77,-0.14,N
218,175,5,7,26,4.60,7.91,-3.46,-0.19,0.04,0.16,N
217,177,5,5,25,4.30,7.86,-3.19,0.06,-0.11,-0.05,N
218,176,3,6,25,3.79,7.98,-3.29,-0.06,0.03,-0.02,N
217,177,4,5,25,4.40,8.03,-3.29,-0.01,-0.05,-0.06,N
218,174,3,6,25,5.72,7.78,-3.61,0.02,0.00,0.09,N
224,175,2,3,19,-0.23,9.18,-2.28,0.00,-0.02,0.02,N
225,176,3,2,21,-0.19,9.13,-2.47,-0.01,-0.04,0.01,N
225,176,3,2,19,-0.17,9.17,-2.40,-0.02,-0.03,0.03,N
225,176,2,4,19,-0.11,9.24,-2.51,-0.05,-0.00,0.01,N
225,177,2,4,19,-0.10,9.13,-2.47,-0.01,-0.01,-0.01,N
224,175,2,3,20,-0.14,9.13,-2.55,-0.05,0.00,0.02,N
224,175,2,3,20,-0.24,9.21,-2.49,-0.03,-0.08,0.01,N
225,175,2,4,19,-0.31,9.08,-2.54,-0.08,-0.19,0.13,N
224,175,2,3,19,-0.57,8.99,-2.49,0.35,-0.42,-0.06,N
224,176,5,3,21,-0.39,8.89,-2.96,0.20,-0.37,0.23,N
225,176,2,4,19,-0.01,8.75,-3.35,0.18,-0.29,0.28,N
225,177,3,4,19,-0.44,8.74,-3.87,0.06,-0.34,0.27,N
225,176,2,2,20,0.45,8.67,-3.01,-0.02,-0.01,0.04,N
223,176,2,2,20,0.42,8.55,-4.20,0.06,-0.03,0.14,N
225,177,2,4,19,0.15,8.57,-3.75,0.03,-0.03,0.03,N
223,176,2,4,19,0.53,8.61,-4.00,0.03,-0.12,0.04,N
224,175,2,4,19,0.31,8.54,-3.47,-0.20,-0.17,0.37,N
224,175,2,4,20,-0.18,7.94,-3.99,0.18,-0.13,0.19,N
223,177,2,5,19,0.88,8.33,-4.43,0.08,-0.12,0.28,N
224,176,3,3,21,1.58,8.32,-3.90,-0.06,-0.12,0.28,N
223,177,2,3,19,1.12,8.20,-4.26,0.15,0.11,-0.10,N
224,176,1,3,20,1.52,8.00,-4.47,0.03,0.12,0.11,N
223,177,2,3,19,1.58,8.03,-4.63,0.08,0.08,0.02,N
225,176,2,2,20,1.67,7.89,-4.61,-0.04,-0.01,0.07,N
223,175,3,2,20,1.97,8.02,-4.53,0.05,-0.07,0.05,N
225,176,2,2,20,1.71,7.98,-4.75,-0.10,0.00,-0.03,N
224,176,1,2,20,1.74,7.80,-4.60,0.03,-0.02,0.01,N
224,176,2,4,19,1.82,7.97,-4.63,0.01,-0.02,-0.01,N
223,176,3,2,19,1.60,7.78,-4.77,0.00,-0.00,-0.02,N
223,176,2,2,20,1.43,7.84,-4.65,-0.05,0.03,-0.06,N
224,176,4,3,19,1.58,7.90,-4.71,0.00,-0.01,-0.03,N
224,176,3,3,20,1.70,7.98,-4.61,-0.01,0.01,-0.02,N
223,176,4,3,20,1.81,8.00,-4.66,0.00,-0.02,0.02,N
224,176,1,3,21,1.77,7.75,-4.92,-0.18,-0.01,-0.08,N
224,176,2,4,20,2.01,7.77,-4.96,-0.06,-0.16,0.04,N
224,176,3,2,20,1.31,8.05,-4.50,-0.13,0.07,0.17,N
224,177,2,3,20,2.19,8.32,-4.33,-0.05,-0.01,0.08,N
224,176,2,1,20,1.88,8.03,-4.23,-0.21,0.20,-0.18,N
223,176,3,4,19,1.87,7.97,-4.09,0.07,-0.16,0.24,N
224,176,1,2,20,1.15,8.03,-4.45,-0.02,-0.01,-0.15,N
225,176,2,2,20,2.09,8.16,-4.33,-0.03,-0.11,0.13,N
223,176,2,2,20,2.03,8.15,-4.29,-0.02,-0.05,0.04,N
224,176,2,2,20,1.86,8.22,-4.12,-0.04,0.08,-0.04,N
225,177,2,5,19,1.86,8.19,-4.13,0.02,-0.06,-0.03,N
224,177,4,2,21,1.84,8.09,-4.27,-0.03,-0.06,0.01,N
223,176,1,2,19,1.81,8.05,-4.22,0.02,0.01,0.02,N
225,176,2,3,20,2.09,8.09,-4.45,-0.05,0.21,0.01,N
223,177,2,5,19,2.13,7.98,-4.46,-0.02,-0.01,0.01,N
224,176,2,4,19,2.12,8.15,-4.34,0.01,-0.03,0.02,N
223,176,2,2,20,2.05,8.08,-4.31,0.02,-0.04,0.00,N
224,176,2,3,20,2.04,8.19,-4.21,0.02,0.02,0.01,N
223,176,1,2,20,2.10,8.02,-4.40,-0.01,-0.04,0.01,N
224,175,3,3,20,2.04,8.03,-4.49,-0.00,-0.00,0.01,N
223,175,2,3,20,2.10,8.00,-4.43,-0.01,0.03,-0.01,N
223,169,2,3,20,2.07,7.88,-4.46,-0.05,-0.00,-0.00,N
223,170,1,2,20,1.95,8.12,-4.42,0.01,-0.00,0.03,N
225,170,2,2,20,2.04,8.08,-4.46,-0.02,0.05,0.01,N
224,171,5,3,23,1.97,7.96,-4.38,-0.02,-0.02,0.00,N
223,167,3,2,20,1.95,8.13,-4.18,0.02,-0.04,0.02,N
225,167,2,2,21,2.01,8.06,-4.25,-0.06,-0.03,-0.02,N
225,170,1,1,20,2.27,8.10,-4.24,-0.23,0.09,-0.02,N
224,171,2,3,21,2.02,8.15,-4.19,0.02,-0.06,-0.01,N
224,171,2,4,20,2.15,8.11,-4.14,0.04,-0.04,0.00,N
223,172,2,4,20,2.06,8.22,-3.85,-0.02,-0.03,0.01,N
224,171,2,3,22,2.03,8.05,-4.28,-0.04,-0.00,-0.02,N
224,172,1,3,20,2.17,8.16,-4.21,0.00,0.00,0.02,N
222,172,2,2,20,1.92,8.22,-4.17,-0.06,-0.03,0.04,N
222,172,2,2,21,1.99,7.94,-4.38,0.01,0.02,-0.00,N
222,173,2,3,20,2.34,8.20,-4.28,-0.02,0.01,0.01,N
223,175,3,4,19,2.29,8.06,-4.15,0.04,0.03,0.05,N
221,173,2,3,20,2.07,8.05,-4.41,-0.05,-0.04,0.02,N
220,174,2,3,20,2.59,7.81,-4.20,0.02,0.03,-0.02,N
218,174,4,3,22,2.60,7.26,-4.71,0.11,-0.11,0.03,N
218,174,4,3,20,2.16,7.71,-4.80,-0.01,-0.02,-0.04,N
216,174,2,3,21,2.40,7.88,-4.53,-0.08,0.00,-0.00,N
180,131,2,4,12,0.52,8.10,-4.64,0.04,-0.12,0.07,O
180,131,1,2,14,0.66,8.32,-4.29,-0.04,-0.04,0.04,O
180,130,1,3,15,0.49,8.21,-4.41,-0.05,-0.04,-0.02,O
181,132,3,2,12,0.56,8.27,-4.34,0.04,-0.04,-0.02,O
182,133,3,4,14,0.81,8.17,-4.51,-0.03,0.06,-0.04,O
180,133,1,2,14,0.50,8.42,-4.24,-0.08,0.12,-0.06,O
181,133,1,3,13,0.46,8.03,-4.27,-0.04,-0.04,-0.00,O
185,134,4,3,15,0.80,8.42,-4.17,-0.11,-0.00,0.04,O
181,135,3,2,15,0.64,8.37,-3.97,0.01,0.01,-0.01,O
182,135,1,2,13,0.72,8.27,-4.28,0.11,0.05,0.06,O
184,136,2,2,16,1.04,8.11,-4.47,-0.00,0.01,0.00,O
182,135,2,3,14,0.81,8.19,-4.56,0.10,-0.02,-0.00,O
183,137,1,4,14,1.03,8.24,-4.51,0.09,-0.02,-0.03,O
183,137,1,4,14,0.80,7.97,-4.88,-0.12,-0.05,0.03,O
185,138,2,2,16,1.02,7.98,-4.62,0.11,-0.08,0.06,O
187,148,2,4,24,1.21,7.55,-5.16,0.13,-0.23,0.01,O
188,164,5,3,22,0.79,7.88,-5.22,0.04,-0.01,0.04,O
189,180,5,3,24,0.58,7.76,-5.00,-0.07,-0.23,0.01,O
189,183,5,5,24,0.49,7.73,-4.97,-0.17,-0.05,-0.03,O
188,182,4,5,23,0.61,8.12,-4.50,-0.08,0.05,-0.02,O
186,182,4,5,23,0.60,8.06,-4.48,0.09,0.04,0.01,O
184,180,5,6,26,0.71,7.91,-4.75,0.01,-0.03,0.02,O
185,181,5,6,25,0.55,7.77,-4.98,0.02,-0.05,0.01,O
185,181,4,5,22,0.52,8.00,-4.67,-0.06,-0.04,0.00,O
185,181,5,5,24,0.64,8.13,-4.68,0.05,-0.04,0.04,O
183,182,4,6,25,0.35,7.97,-4.70,-0.05,-0.03,0.01,O
183,179,6,6,25,0.48,7.95,-4.99,-0.01,-0.07,0.01,O
181,182,3,6,23,0.67,7.83,-4.84,-0.03,-0.05,0.00,O
182,180,4,5,22,0.58,7.91,-4.82,-0.06,-0.02,-0.01,O
184,178,5,5,25,0.81,8.05,-4.79,0.03,0.01,0.03,O
182,181,3,5,24,0.74,7.90,-4.68,-0.02,-0.04,-0.02,O
182,181,5,5,22,0.73,7.99,-4.86,-0.05,0.01,-0.01,O
188,165,4,5,22,0.94,7.80,-4.80,0.02,-0.06,0.01,O
194,135,3,1,1023,0.39,7.85,-5.50,-0.41,-0.24,0.04,O
195,130,2,3,13,0.57,8.32,-4.32,0.00,0.35,-0.04,O
189,132,1,5,15,0.43,8.49,-4.24,-0.08,-0.03,0.02,O
176,131,2,2,14,0.67,8.55,-4.06,-0.07,-0.14,-0.06,O
175,134,4,2,14,0.38,8.51,-3.59,-0.07,-0.01,0.03,O
172,133,1,4,16,0.47,8.43,-3.97,-0.05,-0.09,0.05,O
174,134,2,2,16,0.81,8.48,-4.15,0.07,-0.04,0.05,O
172,136,2,3,14,0.68,8.30,-4.18,0.16,-0.11,-0.05,O
174,136,1,2,15,0.93,8.34,-4.05,0.01,-0.04,-0.01,O
173,136,1,2,15,0.46,8.53,-4.02,0.03,0.01,-0.07,O
174,138,1,2,16,0.26,8.26,-4.36,0.07,-0.01,0.03,O
175,139,3,4,15,0.24,8.09,-4.93,-0.04,-0.04,-0.00,O
176,139,1,1,16,0.71,8.24,-4.22,-0.02,0.00,-0.03,O
176,140,2,3,17,-0.06,8.51,-4.40,0.17,0.02,0.09,O
182,141,3,6,17,1.11,8.17,-4.46,-0.20,0.06,0.05,O
187,150,2,2,17,0.70,8.22,-4.35,0.02,0.08,-0.02,O
188,162,5,3,22,0.76,8.34,-3.96,0.03,-0.04,-0.09,O
191,176,5,5,98,-0.01,8.44,-3.75,0.25,-0.15,-0.03,O
190,180,2,5,23,0.23,8.16,-4.49,-0.04,-0.02,0.02,O
189,180,4,4,25,0.01,8.36,-4.23,-0.09,0.02,0.02,O
190,179,6,5,24,0.25,8.31,-4.30,-0.01,0.04,0.01,O
192,179,6,3,26,0.32,8.19,-4.58,0.05,0.08,0.05,O
189,177,5,5,25,0.11,7.36,-5.21,0.01,-0.21,0.03,O
189,178,5,5,24,0.90,8.23,-4.62,-0.01,-0.17,0.07,O
188,157,4,3,20,1.46,8.22,-4.60,-0.15,0.04,-0.04,O
194,138,2,2,1020,0.20,8.20,-4.04,0.01,0.02,-0.24,O
192,135,2,2,20,-0.23,8.23,-4.60,0.15,0.27,-0.12,O
190,137,2,3,16,0.16,7.65,-4.98,-0.10,-0.04,-0.06,O
189,138,3,3,21,0.12,8.25,-4.28,-0.20,0.07,0.10,O
189,137,1,1,18,0.45,8.43,-4.02,0.05,-0.00,0.02,O
189,139,4,3,20,0.21,8.32,-4.32,-0.01,-0.03,0.04,O
189,140,2,4,15,0.51,8.48,-4.16,0.03,-0.02,0.05,O
190,140,1,2,23,0.58,8.45,-3.77,-0.04,0.04,-0.07,O
189,138,1,4,21,0.48,8.44,-4.05,-0.03,0.01,-0.05,O
190,141,2,1,20,0.49,8.49,-4.18,0.01,-0.02,0.01,O
166,248,6,2,23,1.03,-2.82,-6.99,0.00,-0.14,-0.10,P
165,249,5,4,22,-0.22,-3.05,-7.70,0.11,-0.02,0.23,P
164,249,6,3,22,0.55,-4.37,-8.25,0.15,0.24,-0.49,P
165,248,6,4,22,0.68,-4.04,-7.61,-0.07,-0.14,0.31,P
166,248,5,2,23,0.16,-3.78,-7.65,-0.10,-0.01,0.39,P
166,249,6,3,22,-0.56,-5.61,-8.57,0.19,-0.02,0.53,P
166,249,6,4,23,-0.02,-4.40,-7.83,0.09,0.05,-0.30,P
168,249,6,3,23,-0.47,-4.61,-8.12,0.08,0.06,0.09,P
167,249,5,3,22,1.77,-3.70,-7.89,-0.18,-0.62,-0.50,P
167,248,5,2,23,0.30,-4.01,-6.92,-0.05,-0.56,-0.75,P
167,248,5,2,21,0.10,-4.80,-7.92,0.10,0.20,-0.64,P
167,247,5,2,21,1.24,-4.45,-7.77,-0.05,-0.11,0.10,P
167,248,3,4,22,1.05,-3.90,-7.74,0.04,-0.10,0.15,P
167,248,5,4,22,0.86,-4.25,-7.73,-0.18,0.23,-0.01,P
167,249,5,4,22,1.74,-4.11,-7.52,0.04,0.27,0.24,P
166,249,4,3,22,0.51,-4.21,-8.13,0.32,0.46,0.81,P
168,248,7,2,22,1.29,-4.55,-7.51,-0.08,0.43,0.31,P
167,247,7,3,21,0.02,-4.70,-8.21,-0.21,0.20,-0.03,P
168,249,6,3,22,0.81,-4.02,-7.49,0.11,0.07,-0.05,P
169,248,7,3,23,-0.02,-4.65,-8.18,-0.09,-0.04,0.12,P
168,248,7,2,23,0.56,-4.38,-7.62,-0.03,0.15,0.09,P
168,249,7,3,21,-0.13,-4.47,-7.95,-0.06,0.02,0.07,P
169,248,6,4,22,0.87,-4.23,-7.65,-0.13,0.25,0.58,P
169,249,6,4,22,0.23,-4.18,-7.80,0.14,0.31,0.78,P
170,248,6,3,22,1.00,-3.83,-7.31,-0.01,0.28,0.73,P
170,249,6,3,22,1.17,-4.59,-8.04,-0.22,0.07,-0.01,P
170,247,7,2,22,0.27,-3.75,-8.07,0.05,-0.14,-0.09,P
170,248,6,3,21,0.51,-4.13,-7.98,-0.00,-0.02,0.11,P
170,247,7,3,21,0.93,-3.96,-7.98,-0.13,-0.11,-0.09,P
169,248,7,3,24,0.42,-3.70,-7.93,0.02,-0.03,-0.01,P
171,249,7,1,23,0.68,-3.80,-8.14,0.00,-0.08,-0.10,P
170,249,7,2,22,0.74,-3.61,-7.79,0.06,-0.03,-0.23,P
170,247,5,3,24,0.36,-3.67,-7.57,0.16,-0.05,-0.42,P
171,248,5,2,22,0.69,-4.59,-8.37,0.01,-0.07,-0.11,P
169,249,8,3,22,1.04,-3.76,-7.82,-0.01,-0.06,-0.16,P
169,249,8,5,23,0.53,-4.02,-8.17,-0.06,-0.05,-0.04,P
168,249,6,1,22,0.80,-3.98,-7.75,0.01,-0.08,0.01,P
168,248,9,3,24,0.73,-4.26,-7.89,0.10,-0.09,-0.05,P
160,246,6,2,23,1.82,-3.34,-7.37,-0.07,0.05,-0.45,P
159,248,5,4,22,0.62,-3.87,-8.26,0.04,-0.07,-0.33,P
157,247,5,3,23,0.79,-3.51,-7.90,-0.01,0.07,-0.14,P
156,246,5,3,23,1.44,-3.84,-7.86,0.15,-0.19,-0.08,P
158,247,4,3,22,1.07,-4.01,-8.04,0.07,-0.00,0.17,P
160,247,5,3,23,0.76,-4.04,-8.14,-0.07,0.02,0.06,P
161,247,5,3,23,0.99,-3.94,-8.16,0.00,-0.06,-0.06,P
160,247,7,4,23,1.07,-3.94,-7.99,0.02,0.02,0.01,P
163,247,9,3,24,0.94,-4.09,-8.07,0.00,-0.01,0.03,P
162,247,7,3,23,1.21,-3.82,-8.05,0.07,0.00,0.01,P
160,247,6,3,23,1.39,-3.81,-7.85,0.00,-0.04,-0.01,P
163,247,5,2,21,1.05,-4.07,-8.03,-0.02,-0.04,-0.03,P
162,248,4,4,22,1.13,-4.04,-7.80,0.00,-0.02,0.03,P
162,247,5,2,24,1.30,-4.05,-7.67,0.02,0.01,0.01,P
163,247,5,4,23,1.29,-4.07,-7.70,0.01,0.04,-0.02,P
164,247,6,3,22,1.13,-4.25,-7.89,-0.02,-0.05,0.04,P
164,246,4,3,22,1.25,-4.14,-7.86,-0.02,-0.05,0.00,P
164,247,5,3,23,1.24,-4.06,-7.88,-0.06,0.02,-0.03,P
164,247,7,3,23,1.37,-4.18,-7.90,-0.06,-0.03,0.01,P
164,247,7,4,21,1.11,-4.23,-8.04,-0.05,-0.01,0.06,P
164,246,5,2,21,1.15,-4.06,-7.86,-0.05,-0.03,0.00,P
164,247,5,6,23,1.50,-4.25,-7.86,0.01,0.05,-0.13,P
164,247,6,4,23,1.35,-4.22,-7.87,0.07,-0.04,-0.02,P
165,246,6,2,22,1.19,-4.18,-7.98,-0.04,-0.02,0.01,P
165,246,6,3,21,1.27,-4.18,-8.01,0.01,0.02,-0.00,P
164,246,6,3,20,1.33,-4.17,-7.86,-0.03,0.01,-0.02,P
164,246,6,3,21,1.56,-3.86,-7.55,-0.01,0.03,-0.00,P
165,246,5,2,21,0.96,-3.45,-7.33,-0.04,0.06,-0.10,P
165,245,7,4,21,1.97,-4.35,-7.68,0.02,0.02,-0.06,P
166,245,6,2,20,1.75,-4.05,-7.75,0.06,-0.03,-0.05,P
165,246,5,3,21,1.46,-4.31,-8.02,0.00,-0.01,-0.07,P
166,245,6,4,20,1.53,-4.12,-7.77,0.02,-0.08,0.03,P
165,247,6,1,21,1.43,-4.27,-7.81,-0.02,-0.00,0.06,P
165,246,6,2,20,1.43,-3.96,-7.66,-0.00,0.07,0.06,P
166,245,6,3,22,1.13,-4.11,-7.68,-0.14,-0.04,0.06,P
165,246,6,2,19,1.46,-4.08,-7.84,0.02,-0.02,0.07,P
166,244,5,2,21,1.47,-3.91,-7.52,-0.06,-0.01,0.01,P
167,246,4,4,20,1.34,-4.04,-7.87,-0.03,-0.04,0.02,P
167,246,5,4,21,1.26,-4.14,-7.85,0.01,-0.06,0.03,P
167,245,3,3,21,1.28,-4.00,-7.86,0.00,-0.03,-0.01,P
167,246,6,3,23,1.23,-4.03,-8.00,0.01,0.00,-0.01,P
168,246,7,3,22,1.38,-3.95,-7.94,0.08,-0.10,-0.20,P
166,246,5,1,21,1.20,-3.90,-7.88,-0.02,-0.05,0.06,P
167,246,5,3,21,1.30,-4.01,-7.97,0.01,-0.15,-0.18,P
167,246,5,3,21,1.50,-4.08,-7.70,-0.07,-0.08,-0.12,P
167,245,4,1,20,1.49,-4.31,-7.98,-0.09,-0.02,-0.03,P
168,245,5,2,21,1.79,-3.55,-7.95,0.11,-0.05,-0.02,P
168,247,5,3,21,1.04,-3.90,-7.86,-0.14,0.03,0.07,P
167,246,6,2,20,1.71,-3.98,-7.95,0.05,0.06,0.01,P
169,245,6,3,23,1.48,-4.05,-7.98,0.02,0.01,-0.15,P
168,244,5,2,21,1.50,-4.12,-8.02,0.03,0.00,-0.05,P
168,246,6,4,22,1.53,-3.88,-7.88,-0.03,-0.03,-0.04,P
167,244,6,4,22,1.49,-3.93,-7.69,-0.07,-0.15,-0.06,P
169,245,7,3,22,1.25,-4.17,-8.21,0.03,0.04,0.06,P
169,244,5,3,22,1.28,-3.87,-7.84,-0.06,0.01,-0.10,P
168,245,5,2,22,1.75,-4.12,-8.20,0.06,0.00,0.07,P
169,246,3,4,21,1.59,-3.70,-7.70,-0.06,-0.01,0.02,P
169,245,5,2,21,1.49,-4.05,-8.05,-0.07,0.06,-0.02,P
169,244,7,2,21,1.55,-3.81,-8.00,-0.04,0.05,0.01,P
170,245,6,3,22,1.37,-4.01,-8.21,-0.06,0.09,0.08,P
169,245,5,3,21,1.55,-3.66,-7.66,-0.04,0.06,0.29,P
168,246,6,3,21,1.91,-3.80,-7.99,-0.02,0.01,0.13,P
169,245,4,1,21,1.87,-3.64,-7.77,-0.02,0.03,0.03,P
169,245,4,1,22,2.04,-3.97,-8.07,-0.01,0.01,-0.02,P
169,245,5,4,22,1.80,-4.06,-8.08,0.03,-0.02,-0.05,P
169,245,5,2,21,1.78,-3.80,-7.88,-0.04,-0.02,-0.02,P
214,231,2,2,21,0.33,-4.41,-7.93,-0.03,-0.05,0.03,Q
214,233,3,4,21,0.17,-4.20,-7.64,-0.04,0.00,0.03,Q
213,232,1,2,21,-0.21,-4.55,-7.93,0.13,-0.07,-0.11,Q
213,232,3,3,24,0.07,-4.41,-7.81,0.00,-0.01,-0.03,Q
213,233,2,1,22,0.34,-4.37,-7.56,-0.05,0.05,0.10,Q
213,233,2,3,22,-0.29,-4.30,-7.86,-0.22,0.47,-0.24,Q
213,233,2,1,22,0.27,-4.03,-7.61,-0.03,0.03,0.09,Q
213,233,2,1,22,-0.01,-4.38,-8.17,-0.05,-0.04,0.03,Q
213,234,1,2,19,0.01,-4.15,-7.98,-0.09,-0.06,0.05,Q
213,234,3,1,21,0.10,-4.34,-7.77,0.03,-0.01,-0.03,Q
213,234,1,2,23,-0.01,-4.30,-7.93,0.01,0.05,-0.13,Q
214,235,4,1,23,0.18,-4.12,-7.98,0.00,-0.04,0.01,Q
213,234,4,2,23,-0.21,-4.12,-7.93,0.09,0.03,0.00,Q
212,236,3,4,22,-0.00,-5.26,-8.27,0.05,0.03,-0.16,Q
212,234,1,2,21,0.00,-3.59,-7.23,0.15,-0.01,0.06,Q
213,235,1,2,21,0.14,-4.76,-7.60,0.04,0.03,-0.18,Q
214,236,2,3,22,0.00,-4.80,-7.58,0.02,0.02,-0.04,Q
213,234,1,2,23,0.23,-4.92,-7.47,0.07,-0.19,0.12,Q
213,235,2,1,22,-0.49,-4.62,-7.30,-0.08,0.23,0.16,Q
213,236,2,5,21,-1.02,-4.98,-7.98,0.08,-0.23,0.01,Q
214,235,2,2,22,-0.20,-4.92,-7.31,-0.14,-0.06,0.09,Q
214,234,2,2,22,-0.27,-5.03,-7.42,-0.03,-0.00,-0.01,Q
214,234,2,1,22,-0.53,-5.10,-7.69,0.01,-0.06,0.05,Q
214,236,2,3,22,-0.44,-4.86,-7.38,-0.11,-0.00,0.11,Q
214,234,2,1,22,-0.40,-4.95,-7.34,-0.01,0.05,0.01,Q
214,235,2,3,22,0.02,-4.94,-7.38,-0.07,0.02,0.04,Q
214,233,3,4,22,-0.69,-4.95,-7.61,-0.01,0.02,-0.01,Q
214,235,2,1,22,-0.34,-4.75,-7.10,0.06,-0.02,-0.04,Q
214,234,2,1,22,-0.27,-4.72,-7.52,-0.02,-0.08,0.07,Q
215,234,4,2,22,-0.61,-4.64,-7.23,-0.06,-0.06,0.02,Q
214,235,2,3,22,-0.68,-4.87,-7.42,-0.02,-0.02,-0.00,Q
213,234,1,2,21,-0.57,-4.89,-7.35,-0.04,0.07,-0.02,Q
214,234,1,2,21,-0.47,-4.86,-7.44,-0.01,-0.02,-0.01,Q
214,235,2,4,22,-0.56,-4.93,-7.41,0.09,-0.05,-0.07,Q
213,235,2,4,22,-0.64,-4.89,-7.46,-0.03,0.01,-0.01,Q
214,234,2,2,22,-0.46,-4.87,-7.31,-0.01,-0.01,0.02,Q
214,234,4,2,22,-0.60,-4.85,-7.44,-0.03,-0.02,0.02,Q
214,234,2,3,22,-0.68,-4.81,-7.51,-0.13,-0.16,0.21,Q
214,235,0,1,22,-0.74,-4.82,-7.53,-0.02,-0.01,0.01,Q
215,234,4,2,24,-0.74,-4.83,-7.44,0.01,0.02,-0.01,Q
214,233,3,3,22,-0.76,-4.88,-7.07,0.11,-0.10,-0.02,Q
214,235,2,4,22,-0.90,-4.94,-7.59,0.10,-0.02,-0.00,Q
214,234,2,2,22,-0.84,-5.04,-7.24,-0.03,-0.01,-0.03,Q
214,233,2,1,23,-0.78,-5.08,-7.48,-0.02,-0.02,0.05,Q
214,233,2,3,22,-0.62,-5.07,-7.36,-0.10,-0.04,0.04,Q
214,235,1,4,19,-0.91,-5.08,-7.61,-0.04,-0.03,0.00,Q
214,233,2,2,22,-0.72,-4.87,-7.19,-0.04,-0.07,-0.01,Q
214,233,2,3,22,-0.71,-5.15,-7.50,0.00,0.02,-0.01,Q
215,233,2,4,22,-0.63,-4.96,-7.39,-0.03,0.02,-0.05,Q
214,233,2,2,22,-0.65,-5.06,-7.47,-0.03,0.01,-0.03,Q
214,234,1,2,21,-0.60,-4.99,-7.46,-0.03,0.02,0.03,Q
213,232,2,2,23,-0.55,-4.87,-7.31,-0.01,-0.05,0.02,Q
213,233,1,3,21,-0.42,-4.95,-7.37,-0.02,-0.03,-0.00,Q
214,233,2,2,22,-0.42,-5.01,-7.27,-0.05,0.00,-0.03,Q
214,232,3,2,21,-0.42,-5.20,-7.33,0.03,-0.02,0.10,Q
215,233,4,2,22,-0.33,-4.98,-7.36,-0.00,-0.06,-0.01,Q
213,232,1,2,21,-0.39,-5.23,-7.35,-0.02,-0.02,-0.00,Q
214,233,2,2,22,-0.37,-5.06,-7.26,0.04,0.00,0.02,Q
213,233,1,2,24,-0.45,-5.21,-7.37,-0.04,-0.03,0.03,Q
215,233,5,1,22,-0.45,-5.19,-7.32,-0.03,0.01,0.02,Q
213,232,1,2,21,-0.34,-5.11,-7.33,0.00,-0.00,-0.00,Q
213,232,2,1,22,-0.46,-5.18,-7.41,-0.05,-0.02,0.17,Q
214,233,2,1,22,-0.74,-4.70,-7.25,-0.15,0.32,0.16,Q
214,233,2,1,22,-0.60,-4.90,-7.31,-0.04,0.14,0.42,Q
213,231,1,2,23,0.27,-4.96,-7.35,-0.04,-0.03,0.14,Q
214,232,2,3,22,0.42,-5.03,-7.46,-0.09,-0.18,-0.37,Q
215,232,4,2,23,-0.21,-5.63,-7.83,0.17,-0.09,-0.52,Q
215,232,1,2,21,-0.57,-4.92,-7.24,-0.06,-0.06,-0.41,Q
214,233,2,3,22,-0.26,-5.02,-7.44,0.03,-0.05,-0.11,Q
215,232,1,0,21,1.11,-5.59,-7.70,-0.08,-0.34,-0.14,Q
213,232,1,2,21,0.43,-5.08,-7.00,0.04,-0.36,-0.70,Q
215,232,2,2,22,-0.17,-5.10,-7.46,-0.01,-0.28,-0.53,Q
214,233,2,3,23,-0.29,-5.05,-7.55,-0.06,-0.15,-0.33,Q
214,232,1,2,21,0.47,-4.91,-7.23,-0.08,-0.06,-0.16,Q
213,233,3,2,24,-0.22,-5.05,-7.61,0.02,-0.12,-0.21,Q
214,233,2,4,22,-0.48,-5.25,-7.53,0.00,-0.40,-0.11,Q
214,234,2,4,22,-0.41,-4.92,-7.41,-0.12,0.02,-0.11,Q
214,232,4,2,23,0.24,-4.77,-7.28,-0.12,-0.01,-0.24,Q
214,232,1,2,21,-0.46,-5.19,-7.62,0.10,-0.26,-0.11,Q
214,233,2,2,21,0.25,-4.35,-7.13,-0.19,0.40,-0.04,Q
214,233,1,2,21,0.66,-5.03,-7.74,-0.02,0.17,0.11,Q
214,233,2,2,21,0.99,-4.61,-7.57,-0.01,0.05,0.16,Q
214,233,2,2,22,0.84,-5.09,-7.73,-0.22,0.07,0.12,Q
215,233,3,2,23,1.21,-4.79,-7.75,0.08,-0.06,0.09,Q
214,233,4,2,22,1.14,-4.57,-7.44,0.07,0.07,-0.01,Q
214,234,2,4,23,1.05,-4.89,-7.45,-0.05,0.01,-0.03,Q
213,233,1,1,21,1.03,-4.96,-7.61,-0.04,0.01,-0.02,Q
214,232,3,2,21,0.94,-4.82,-7.30,0.09,-0.14,-0.07,Q
214,233,2,3,23,1.14,-4.98,-7.36,-0.08,0.03,0.07,Q
149,270,4,2,17,-1.15,8.53,-3.99,-0.13,-0.39,0.05,R
149,270,4,3,15,-0.24,8.64,-3.17,-0.10,-0.12,0.08,R
150,268,3,2,17,-1.11,8.93,-3.40,-0.01,-0.06,-0.07,R
150,269,4,2,18,-0.91,8.34,-3.24,0.06,0.01,-0.04,R
150,270,3,2,18,-0.91,8.71,-3.35,-0.05,0.06,0.03,R
151,269,5,2,20,-0.74,8.92,-3.23,-0.06,0.02,0.03,R
150,270,4,2,17,-1.17,8.56,-3.42,-0.02,0.02,0.03,R
150,270,4,1,16,-1.01,8.62,-3.59,-0.02,-0.06,0.04,R
150,269,3,1,18,-1.24,8.80,-2.80,-0.10,-0.18,0.06,R
150,270,3,2,17,-0.60,8.83,-2.85,0.02,-0.06,0.05,R
150,269,3,1,19,-0.72,8.87,-3.18,-0.01,0.04,0.02,R
150,270,4,2,17,-0.90,8.77,-3.05,-0.01,0.05,0.02,R
151,269,3,2,17,-0.66,8.81,-3.24,0.03,0.04,0.00,R
150,270,3,4,17,-0.71,8.84,-3.20,0.01,0.02,-0.03,R
150,269,3,2,18,-1.04,8.63,-3.35,0.09,0.12,-0.14,R
151,269,3,2,17,-1.07,8.61,-3.65,0.04,0.11,-0.10,R
150,270,4,2,18,-0.87,8.43,-4.00,-0.00,0.01,0.05,R
149,269,4,2,17,-0.62,8.45,-3.84,-0.03,-0.02,0.01,R
150,270,4,2,17,-0.59,8.54,-3.68,-0.04,-0.07,0.03,R
148,269,3,1,17,-0.83,8.66,-3.59,-0.02,-0.17,0.05,R
150,270,4,2,18,-0.42,8.66,-3.54,-0.09,-0.12,0.04,R
150,269,2,1,16,-0.78,8.57,-3.50,-0.03,-0.02,0.04,R
150,269,2,2,16,-0.61,8.68,-3.54,-0.05,-0.07,0.05,R
150,266,3,2,18,-0.49,8.68,-3.33,0.02,0.02,-0.04,R
151,269,5,2,16,-0.73,8.63,-3.55,0.04,0.11,-0.09,R
149,269,3,2,17,-0.89,8.33,-3.60,0.11,0.09,-0.18,R
150,269,2,1,16,-0.87,8.31,-4.13,0.14,0.11,0.07,R
150,269,3,1,18,-0.76,8.15,-4.58,-0.03,-0.01,0.05,R
152,269,4,2,19,-0.41,8.13,-4.54,-0.05,-0.06,0.04,R
150,269,4,3,18,-0.54,8.38,-4.07,-0.11,-0.02,0.03,R
151,269,3,2,15,-0.43,8.41,-4.14,-0.14,-0.10,0.01,R
152,269,5,3,19,-0.58,8.50,-3.63,-0.12,0.09,-0.02,R
150,269,3,3,17,-0.75,8.64,-3.38,-0.11,-0.01,0.09,R
151,270,3,4,18,-0.43,8.68,-3.58,-0.07,-0.09,0.01,R
150,270,3,0,17,-0.54,8.76,-3.22,-0.06,-0.11,0.06,R
150,269,3,1,18,-0.43,8.84,-3.27,-0.04,-0.04,0.01,R
150,269,3,1,17,-0.52,8.76,-3.18,0.03,-0.02,-0.03,R
150,270,3,5,17,-0.43,8.80,-3.21,-0.02,-0.04,0.01,R
150,269,3,5,18,-0.53,8.81,-3.23,-0.00,-0.01,0.01,R
149,269,4,1,18,-0.69,8.76,-3.34,-0.04,0.00,-0.01,R
150,269,4,1,17,-0.52,8.75,-3.33,-0.06,-0.04,-0.02,R
150,269,2,1,19,-0.54,8.80,-3.19,-0.03,0.03,0.06,R
150,269,4,3,18,-0.29,8.78,-3.13,-0.01,0.03,0.01,R
150,269,4,2,18,-0.40,8.79,-3.43,-0.04,0.01,-0.06,R
151,270,3,0,17,-0.90,8.76,-3.21,0.04,-0.03,-0.02,R
150,269,3,1,18,-0.36,8.76,-3.06,-0.06,-0.03,0.02,R
152,270,5,2,18,-0.89,8.78,-3.30,-0.01,-0.05,0.07,R
150,269,4,3,19,-0.44,8.80,-3.15,-0.01,0.00,-0.02,R
151,269,3,4,18,-0.51,8.86,-3.27,-0.02,0.01,-0.01,R
151,270,3,3,17,-0.68,8.70,-3.26,0.00,0.02,-0.07,R
150,270,3,2,18,-0.90,8.74,-3.55,-0.01,0.03,-0.05,R
151,270,2,2,20,-0.75,8.65,-3.55,0.00,-0.05,-0.01,R
153,269,4,2,20,-0.88,8.66,-3.41,-0.03,-0.05,0.03,R
152,270,4,1,18,-0.84,8.73,-3.34,-0.05,-0.04,0.07,R
150,270,2,2,18,-0.52,8.85,-3.29,-0.01,-0.04,0.05,R
152,270,4,1,17,-0.75,8.77,-3.26,-0.01,-0.00,0.01,R
152,270,5,2,20,-0.54,8.70,-3.32,-0.03,0.03,-0.01,R
150,269,2,1,17,-0.51,8.88,-3.33,0.01,-0.01,-0.02,R
150,269,3,2,18,-0.71,8.74,-3.28,-0.02,0.05,-0.05,R
151,269,4,3,17,-0.69,8.71,-3.34,-0.02,0.00,-0.02,R
151,270,5,3,19,-0.63,8.88,-3.37,-0.10,0.15,-0.01,R
151,269,3,1,18,-0.42,8.79,-3.30,-0.04,0.10,0.03,R
151,269,3,1,19,0.08,8.84,-3.16,-0.05,0.16,0.02,R
151,270,4,2,17,-0.13,8.83,-3.22,-0.02,-0.09,0.06,R
152,270,3,1,17,-0.69,8.82,-3.11,0.03,-0.44,0.06,R
151,266,3,2,18,-0.83,8.76,-3.06,-0.01,-0.48,0.08,R
152,270,5,2,21,-0.95,8.93,-3.01,-0.04,-0.30,0.16,R
152,270,5,2,17,-0.52,8.99,-3.10,-0.02,-0.16,0.07,R
151,269,4,3,17,-0.56,8.84,-3.02,-0.03,-0.03,-0.00,R
152,270,5,2,17,-0.61,8.87,-3.11,-0.04,-0.06,0.00,R
150,269,3,3,17,-0.68,8.83,-3.14,0.02,-0.06,-0.00,R
152,269,2,3,20,-0.67,8.84,-2.99,-0.03,-0.13,0.08,R
151,269,3,4,18,-0.59,8.78,-2.97,-0.01,0.06,0.04,R
152,269,4,2,17,-0.40,8.93,-3.24,-0.04,0.05,0.05,R
152,270,4,3,17,-0.37,8.80,-3.22,0.07,0.03,-0.02,R
151,270,4,3,20,0.03,8.98,-3.30,0.09,-0.00,0.06,R
152,266,3,2,17,-0.20,8.83,-3.51,0.05,-0.02,-0.14,R
152,270,4,2,18,-0.34,8.75,-3.39,-0.08,-0.02,0.00,R
151,269,4,1,18,-0.26,8.76,-3.21,0.02,0.10,-0.03,R
153,269,4,1,17,-0.38,8.73,-3.48,-0.07,0.04,0.05,R
152,269,3,3,18,0.05,8.70,-3.51,-0.00,0.01,0.02,R
150,269,3,4,17,-0.10,8.63,-3.46,-0.01,0.05,0.05,R
153,269,5,2,20,0.13,8.74,-3.46,-0.02,-0.07,0.09,R
151,270,3,2,17,-0.55,8.67,-3.77,-0.04,-0.06,-0.01,R
151,269,5,1,17,0.05,8.62,-3.40,0.03,-0.02,0.01,R
152,269,4,3,18,0.15,8.79,-3.57,-0.03,-0.03,0.05,R
151,270,3,1,17,-0.06,8.64,-3.56,-0.02,-0.02,-0.02,R
153,270,5,2,18,0.09,8.74,-3.39,-0.05,0.05,-0.05,R
152,270,3,1,18,-0.08,8.81,-3.49,-0.02,0.05,-0.09,R
151,269,3,4,18,-0.12,8.53,-3.28,0.04,0.09,-0.06,R
151,269,4,2,17,-0.30,8.77,-3.67,0.01,0.13,0.00,R
153,270,5,2,20,-0.15,8.68,-3.46,-0.02,-0.04,0.04,R
151,270,3,1,18,-0.11,8.62,-3.68,-0.03,0.04,0.00,R
152,270,4,2,18,0.30,8.66,-3.65,-0.04,0.06,0.00,R
152,270,3,1,17,0.00,8.73,-3.40,-0.10,0.38,-0.05,R
153,270,5,3,18,0.31,8.83,-3.25,-0.09,0.21,-0.00,R
152,270,3,4,18,0.53,8.91,-3.28,-0.04,0.16,-0.07,R
153,269,4,2,15,0.28,8.69,-3.44,-0.02,0.05,-0.06,R
153,269,4,2,19,0.17,9.09,-3.57,0.00,-0.11,-0.01,R
154,270,5,2,21,-0.59,8.79,-3.47,0.10,-0.29,-0.02,R
152,269,3,3,19,-0.12,8.79,-3.22,-0.05,-0.14,0.08,R
151,270,3,1,18,0.36,8.82,-3.24,-0.05,-0.01,0.05,R
151,269,2,3,17,0.07,8.81,-3.19,-0.02,-0.03,0.03,R
151,269,2,1,18,0.20,8.83,-3.36,-0.00,-0.16,0.08,R
153,270,4,2,17,0.07,8.74,-3.43,0.01,-0.00,0.02,R
153,270,4,0,17,0.46,8.89,-3.35,-0.03,-0.01,0.05,R
151,269,4,1,18,-0.05,8.80,-3.41,-0.02,-0.04,0.01,R
153,269,4,1,17,0.20,8.77,-3.14,-0.03,0.04,-0.05,R
154,148,2,1,18,2.69,1.75,-8.38,0.02,-0.00,0.11,S
155,148,2,1,15,2.17,1.60,-8.61,0.06,0.11,-0.11,S
155,149,2,4,16,2.86,1.82,-8.23,-0.14,0.10,-0.10,S
156,147,4,1,19,2.70,1.84,-7.98,0.04,0.08,-0.00,S
156,147,2,1,16,3.00,1.53,-8.50,0.01,0.07,-0.02,S
156,148,1,2,17,2.83,1.50,-8.40,0.04,-0.05,0.03,S
156,149,2,3,16,3.21,1.41,-8.59,0.14,-0.08,0.03,S
157,148,3,0,17,2.48,1.34,-8.13,0.13,0.01,0.05,S
157,147,2,1,18,2.80,0.76,-8.79,0.05,0.04,0.00,S
158,147,4,2,18,3.01,0.73,-8.49,-0.06,0.01,-0.00,S
158,149,3,2,15,3.12,0.83,-8.48,-0.02,0.01,-0.02,S
158,148,2,1,16,3.01,0.97,-8.31,0.02,-0.01,0.03,S
158,148,2,1,16,2.96,0.91,-8.33,-0.04,-0.04,0.03,S
158,149,2,1,16,3.00,0.88,-8.51,0.02,0.08,-0.01,S
159,148,4,2,18,2.68,1.29,-8.34,-0.24,-0.10,-0.06,S
159,149,2,2,17,2.44,1.88,-8.13,-0.51,-0.04,0.02,S
158,148,2,1,18,1.02,3.13,-8.26,-0.71,-1.85,0.76,S
159,148,1,2,17,1.98,3.97,-7.52,-0.55,0.24,0.11,S
158,148,1,0,15,1.99,4.25,-8.21,0.06,0.00,0.08,S
159,148,1,0,16,2.18,3.67,-8.18,0.10,-0.07,0.02,S
160,149,2,2,16,2.06,3.65,-7.99,0.04,0.05,-0.04,S
159,148,2,2,19,2.03,3.69,-7.97,-0.18,-0.12,0.03,S
159,148,1,2,17,2.12,4.46,-7.46,-0.19,0.19,0.01,S
160,149,2,2,15,1.86,4.12,-7.54,0.63,-0.20,-0.16,S
159,148,2,2,15,2.34,2.56,-8.37,0.03,-0.30,0.01,S
159,149,2,1,17,3.01,3.10,-7.78,-0.07,0.12,0.10,S
160,150,1,4,17,2.49,2.91,-8.39,-0.02,-0.01,0.00,S
159,149,1,2,17,3.26,3.63,-7.29,-0.16,-0.17,0.05,S
159,149,2,2,17,1.51,4.14,-7.26,-0.25,0.13,-0.25,S
160,150,2,4,17,2.36,3.71,-8.09,0.14,0.03,-0.15,S
161,149,1,2,17,1.88,3.69,-7.58,-0.08,-0.06,-0.10,S
161,149,3,1,18,2.17,4.43,-7.90,0.01,0.08,0.07,S
161,148,1,2,17,1.96,4.36,-7.16,-0.17,0.04,-0.06,S
161,149,2,2,17,2.38,4.28,-7.81,-0.11,-0.18,0.33,S
160,149,3,3,18,2.47,4.40,-7.32,-0.08,-0.08,0.24,S
161,149,3,1,17,2.15,3.57,-8.62,0.12,-0.33,0.36,S
160,149,2,1,16,2.75,4.51,-7.27,-0.01,-0.30,0.15,S
159,150,1,0,17,2.08,4.08,-7.85,-0.08,-0.04,-0.00,S
161,150,2,1,17,2.29,4.27,-7.39,0.12,0.12,-0.09,S
160,149,3,1,17,2.04,2.71,-8.68,0.42,-0.04,0.21,S
158,148,2,2,17,2.43,3.05,-8.53,0.12,-0.11,0.04,S
157,148,1,2,17,2.48,3.08,-8.12,-0.01,-0.04,-0.05,S
158,151,1,3,16,2.18,2.75,-8.40,-0.01,0.04,-0.04,S
157,149,2,3,17,2.18,2.91,-8.18,0.00,-0.03,0.00,S
156,150,2,1,16,2.52,3.00,-8.21,0.02,0.07,-0.24,S
157,149,1,3,19,2.53,2.89,-7.96,0.00,0.23,-0.35,S
158,148,1,0,17,2.04,2.87,-8.20,0.18,0.09,-0.38,S
156,149,2,1,17,2.03,2.85,-8.41,0.08,-0.00,-0.06,S
158,149,2,1,16,2.38,2.68,-8.33,-0.08,-0.12,0.02,S
158,149,2,1,17,2.41,2.72,-7.73,0.35,-0.15,-0.06,S
158,149,1,1,17,1.61,1.93,-8.75,0.07,-0.08,-0.01,S
158,149,2,1,16,2.02,1.93,-8.72,-0.18,-0.02,0.17,S
158,144,2,1,16,1.77,2.58,-8.43,-0.21,0.11,0.03,S
158,133,1,1,17,1.89,2.92,-8.00,-0.14,0.00,-0.02,S
160,131,2,2,18,2.04,2.99,-8.40,-0.19,0.03,0.04,S
159,148,2,5,18,2.06,3.29,-8.10,-0.34,-0.05,0.03,S
160,147,0,1,16,1.96,3.55,-8.13,-0.10,-0.05,0.00,S
159,148,2,1,17,2.30,4.02,-7.89,-0.01,0.03,0.04,S
161,147,4,3,19,2.10,4.10,-7.53,-0.00,-0.01,0.06,S
161,147,1,2,18,2.43,3.81,-7.90,0.02,-0.04,0.05,S
159,148,1,4,18,1.87,3.92,-7.90,-0.11,0.03,-0.00,S
160,147,2,3,16,2.11,3.87,-7.55,0.09,-0.03,0.02,S
159,148,2,1,17,2.05,3.65,-8.01,0.14,0.08,-0.08,S
162,148,1,0,17,2.09,3.47,-8.27,-0.05,-0.04,0.00,S
161,147,4,2,18,2.08,3.50,-7.94,-0.03,-0.08,0.04,S
161,147,1,2,17,2.23,3.73,-7.80,-0.03,-0.04,0.02,S
160,148,1,3,17,1.58,3.69,-8.09,0.00,-0.17,0.12,S
161,147,3,2,19,1.94,3.72,-7.72,-0.02,-0.09,0.06,S
161,148,2,4,19,1.80,3.85,-8.09,-0.05,0.01,-0.00,S
161,148,3,2,15,2.02,3.65,-7.85,0.03,-0.00,-0.03,S
160,147,2,1,16,1.75,3.72,-7.96,0.02,0.01,-0.08,S
161,147,1,1,19,1.86,3.73,-7.91,-0.03,0.05,-0.03,S
161,147,4,2,20,1.98,3.68,-8.01,0.01,-0.02,-0.03,S
163,147,3,2,18,2.03,3.73,-7.81,0.00,0.02,0.04,S
161,146,1,2,19,2.29,3.59,-8.10,-0.01,-0.01,0.06,S
161,148,1,3,18,2.16,3.62,-7.76,-0.03,-0.01,0.03,S
160,149,4,1,16,2.12,3.61,-8.07,-0.04,-0.00,0.03,S
161,148,2,2,17,2.17,3.59,-7.86,-0.04,-0.03,0.07,S
161,148,2,1,17,2.43,3.53,-8.17,0.01,-0.02,0.05,S
161,148,2,4,17,2.13,3.55,-7.97,-0.04,0.03,-0.04,S
160,148,2,1,18,2.54,3.57,-7.83,-0.03,0.01,-0.15,S
161,148,1,2,18,1.98,3.70,-8.00,0.01,0.08,0.01,S
161,148,3,3,18,2.19,3.63,-7.83,-0.01,-0.03,-0.02,S
163,147,2,0,16,2.40,3.53,-7.87,-0.02,-0.04,0.01,S
161,149,2,2,18,2.15,3.51,-8.12,0.11,0.02,-0.10,S
162,149,2,3,17,2.41,3.42,-7.98,-0.05,0.02,0.06,S
162,149,3,2,16,2.43,3.46,-7.90,-0.03,-0.03,-0.00,S
163,147,4,2,18,2.35,3.59,-7.97,-0.07,-0.06,0.04,S
162,148,1,2,17,2.42,3.55,-7.85,0.01,0.06,-0.01,S
161,148,2,2,17,2.45,3.48,-7.88,-0.04,0.01,0.00,S
162,149,2,1,16,2.44,3.56,-7.88,-0.03,-0.02,0.01,S
162,149,2,1,17,2.12,3.56,-7.86,0.01,0.04,-0.00,S
214,182,3,6,19,4.22,7.56,-3.53,-0.15,-0.11,-0.03,T
214,183,1,4,19,4.40,8.32,-2.89,0.17,0.12,-0.03,T
216,182,2,3,20,3.86,7.58,-3.71,-0.27,-0.05,-0.04,T
214,184,1,4,19,4.12,8.05,-3.30,-0.05,-0.11,0.00,T
215,184,1,3,20,3.80,8.36,-2.66,-0.11,-0.10,0.06,T
214,184,1,5,19,3.63,7.82,-3.72,0.18,-0.29,0.04,T
215,185,1,5,19,4.36,7.85,-3.39,-0.16,-0.03,0.09,T
215,184,1,4,19,2.57,8.84,-1.95,-0.04,0.18,-0.73,T
214,182,3,2,19,3.18,7.58,-4.70,-0.06,-0.10,0.37,T
214,184,2,2,20,3.43,8.70,-2.39,-0.20,-0.14,-0.02,T
215,183,1,3,20,3.50,8.24,-3.26,0.01,0.01,0.09,T
215,184,1,2,21,3.46,8.28,-3.23,-0.03,-0.04,0.02,T
214,184,1,2,20,3.85,8.28,-3.34,-0.11,-0.73,0.24,T
214,185,2,1,20,3.00,8.35,-3.80,-0.17,-0.91,0.43,T
213,186,2,4,19,3.97,7.92,-4.15,-0.32,-0.96,0.50,T
214,186,2,2,20,2.49,7.90,-3.56,-0.34,-1.57,0.47,T
214,185,2,4,19,2.99,7.96,-4.63,-0.08,-0.50,0.36,T
214,188,2,4,19,2.40,7.68,-4.76,0.09,0.32,-0.06,T
214,186,2,1,19,3.47,7.65,-4.82,-0.09,0.05,-0.01,T
215,186,3,2,20,1.94,7.91,-3.74,0.14,0.25,0.12,T
214,187,1,3,20,3.55,7.59,-4.70,-0.13,0.21,0.03,T
214,188,0,3,18,4.02,7.47,-3.98,-0.02,0.22,-0.11,T
216,187,4,1,20,3.79,8.17,-3.77,0.78,3.08,-0.49,T
215,187,1,2,20,5.03,7.09,-3.42,0.01,-0.03,-0.49,T
213,187,1,1,19,4.80,7.92,-3.04,-0.12,0.07,0.07,T
214,188,2,2,21,5.34,7.82,-2.92,-0.05,-0.07,-0.03,T
215,187,4,1,20,4.89,7.90,-2.47,-0.02,0.09,-0.01,T
215,188,1,1,20,4.98,7.92,-2.76,-0.00,0.04,-0.13,T
215,188,2,2,19,4.89,8.03,-2.26,0.02,0.21,-0.17,T
214,188,1,2,19,4.45,7.85,-2.40,0.55,-0.08,-0.30,T
215,189,2,4,19,3.53,7.18,-4.55,0.05,-0.08,-0.19,T
215,189,1,2,17,4.36,8.51,-2.51,-0.11,0.29,0.38,T
214,189,2,1,19,5.12,7.91,-3.39,-0.29,0.24,-0.10,T
215,188,1,2,21,4.96,8.38,-2.81,-0.13,0.04,0.11,T
215,190,1,1,20,4.89,7.87,-1.51,-0.00,-0.10,0.09,T
216,189,4,2,22,5.18,8.10,-2.93,-0.17,0.08,0.05,T
215,189,2,1,20,4.85,7.99,-2.58,-0.15,-0.29,-0.08,T
215,188,1,3,21,3.99,8.45,-2.78,-0.53,-0.32,-0.22,T
216,189,4,2,21,5.22,7.82,-0.84,-0.25,0.12,0.19,T
215,189,1,2,20,4.54,8.75,-1.07,-0.04,-0.09,0.19,T
215,190,2,4,19,4.95,8.58,-0.71,-0.05,0.03,-0.09,T
215,190,2,2,19,4.48,8.43,-1.36,0.07,0.03,-0.04,T
214,189,1,1,21,4.54,8.68,-1.23,-0.01,0.11,0.02,T
216,189,1,2,22,4.28,9.00,-1.26,0.19,0.36,0.03,T
214,189,2,1,20,4.20,8.32,-1.60,-0.22,-0.22,-0.06,T
214,189,2,1,18,4.56,8.38,-1.43,-0.00,-0.03,0.02,T
215,190,0,0,19,4.66,8.56,-1.40,-0.02,0.05,-0.00,T
215,188,1,2,20,4.72,8.35,-1.55,-0.00,-0.02,0.01,T
214,189,2,4,19,4.75,8.43,-1.64,0.02,0.01,0.01,T
215,189,1,2,20,4.87,8.51,-1.56,-0.01,-0.03,-0.01,T
215,189,4,3,22,4.78,8.54,-1.56,0.03,-0.03,-0.05,T
216,190,2,2,20,4.51,8.33,-1.57,0.04,-0.04,-0.07,T
215,191,2,2,20,4.33,8.53,-1.75,0.04,-0.03,-0.03,T
215,190,1,2,20,4.44,8.26,-2.06,0.07,-0.02,-0.02,T
215,190,2,2,19,4.40,8.52,-1.96,-0.00,0.03,-0.01,T
215,190,1,2,20,4.46,8.37,-1.93,-0.00,-0.04,-0.01,T
215,191,0,3,19,4.24,8.22,-2.26,0.02,0.02,0.08,T
215,192,2,3,19,5.04,8.66,-1.85,-0.09,-0.04,0.00,T
216,190,1,2,21,4.53,8.18,-1.78,0.02,-0.01,0.03,T
214,190,2,2,20,4.68,8.46,-2.00,-0.01,-0.00,-0.01,T
207,242,5,2,21,1.39,8.78,-3.17,-0.01,-0.02,-0.00,U
207,241,6,3,25,1.26,8.64,-3.26,0.01,0.03,-0.01,U
208,241,6,2,24,1.48,8.81,-3.45,-0.00,-0.02,0.03,U
207,242,4,2,23,1.47,8.67,-3.53,-0.05,-0.05,-0.00,U
208,241,4,2,23,1.56,8.69,-3.19,-0.01,-0.02,0.03,U
207,241,5,3,24,1.42,8.79,-3.26,-0.09,0.02,0.00,U
208,241,5,2,23,1.47,8.76,-3.36,-0.01,-0.05,0.00,U
207,242,7,3,24,1.86,8.78,-3.36,-0.05,0.15,-0.03,U
208,242,5,2,24,1.40,8.55,-3.66,-0.03,-0.21,0.02,U
206,242,4,3,22,1.53,8.77,-3.12,-0.08,-0.23,0.11,U
207,242,5,2,24,1.52,8.77,-3.17,-0.09,-0.09,0.04,U
208,241,6,3,22,1.64,8.54,-2.83,-0.11,-0.05,0.01,U
208,243,3,4,22,1.51,8.93,-3.54,0.04,-0.06,0.03,U
208,241,3,2,21,1.45,8.71,-3.37,0.02,0.10,-0.12,U
207,242,7,2,22,1.25,8.74,-3.47,0.09,0.06,-0.03,U
207,241,5,1,22,1.71,8.62,-3.42,0.12,0.14,-0.17,U
207,242,5,2,23,0.93,8.56,-4.04,-0.01,0.07,-0.07,U
207,242,3,2,21,1.02,8.39,-4.15,-0.01,-0.05,0.06,U
207,243,5,2,22,1.11,8.33,-4.03,-0.06,-0.02,0.01,U
207,244,7,2,21,1.37,8.48,-3.90,-0.04,-0.04,0.04,U
207,243,4,1,20,1.40,8.44,-3.92,-0.01,-0.07,0.04,U
207,243,5,2,21,1.30,8.57,-3.79,-0.04,-0.07,0.02,U
207,243,5,2,23,1.64,8.38,-4.03,-0.04,-0.15,0.21,U
208,242,5,2,22,1.53,8.63,-3.72,0.07,-0.10,0.04,U
208,243,5,4,19,1.65,8.36,-3.84,-0.04,0.04,0.01,U
207,243,7,3,21,1.61,8.34,-4.03,-0.07,0.03,-0.04,U
207,243,5,3,22,1.51,8.30,-3.64,-0.06,-0.05,0.01,U
208,243,5,2,21,1.45,8.50,-4.01,0.04,-0.07,0.01,U
208,243,6,3,22,1.65,8.57,-3.53,-0.03,-0.05,0.03,U
207,243,6,3,22,1.79,8.62,-3.56,0.00,-0.02,0.06,U
207,243,5,2,21,1.69,8.57,-3.66,-0.01,0.09,-0.08,U
206,243,4,1,21,1.30,8.54,-3.80,0.04,0.15,-0.18,U
208,242,5,2,21,1.14,8.45,-3.80,0.11,0.11,-0.04,U
207,242,5,4,21,1.41,8.46,-4.13,-0.03,0.02,-0.02,U
206,243,4,2,20,1.69,8.26,-3.53,-0.02,-0.06,0.06,U
207,243,5,2,22,1.28,8.44,-4.14,-0.03,0.01,0.03,U
207,243,7,2,24,1.39,8.26,-4.16,-0.01,-0.06,0.02,U
207,242,5,2,21,1.42,8.39,-4.11,-0.12,-0.11,0.05,U
208,244,5,4,22,1.47,8.38,-3.93,0.01,-0.15,0.05,U
208,242,4,1,22,1.58,8.46,-3.84,-0.09,-0.04,0.07,U
208,242,5,2,21,1.46,8.54,-3.81,-0.01,0.01,0.01,U
208,242,6,3,22,1.39,8.45,-3.84,-0.04,-0.02,-0.02,U
208,243,5,4,19,1.47,8.35,-3.85,-0.01,-0.04,0.02,U
206,242,4,1,22,1.50,8.44,-4.08,0.06,0.09,-0.11,U
206,243,6,3,20,1.73,8.44,-3.89,-0.07,-0.07,0.11,U
208,243,3,1,22,1.17,8.39,-3.92,-0.01,-0.09,-0.05,U
207,242,4,2,22,1.51,8.45,-3.86,-0.06,-0.05,0.06,U
207,242,5,2,21,1.62,8.36,-3.94,-0.04,-0.15,0.14,U
207,243,5,2,23,1.69,8.42,-3.84,-0.03,-0.06,0.05,U
209,243,6,2,24,1.68,8.43,-3.80,-0.03,0.00,0.04,U
207,243,5,1,22,1.84,8.45,-3.89,-0.00,0.03,0.00,U
207,243,5,4,22,1.83,8.40,-3.96,-0.03,0.03,-0.03,U
208,243,5,4,21,1.90,8.27,-3.90,0.04,0.10,-0.14,U
206,243,5,1,22,1.73,8.53,-3.45,0.03,0.19,-0.07,U
207,242,7,2,23,1.68,7.74,-4.37,0.13,0.18,-0.13,U
208,243,5,1,21,1.62,8.07,-4.67,0.11,0.05,-0.02,U
208,242,6,2,22,1.64,7.91,-4.88,0.06,0.03,-0.00,U
208,242,5,4,23,1.82,7.90,-4.69,-0.05,-0.00,0.01,U
208,242,3,2,23,1.76,7.91,-4.46,-0.04,-0.06,0.08,U
207,243,4,1,22,1.71,8.12,-4.53,-0.01,-0.07,0.07,U
208,242,7,3,22,1.81,7.76,-4.75,-0.03,-0.13,0.03,U
207,242,5,2,21,1.83,7.71,-4.27,0.08,0.05,0.13,U
208,242,4,3,22,2.37,7.75,-5.15,0.20,0.07,0.10,U
207,242,5,2,24,2.56,7.47,-5.22,-0.26,0.33,0.01,U
208,242,7,2,22,2.71,7.31,-4.89,-0.04,0.00,0.05,U
207,242,5,2,23,2.38,7.40,-5.24,0.02,-0.05,0.10,U
208,244,5,2,23,2.65,7.63,-4.75,-0.05,-0.07,-0.03,U
208,243,6,1,22,2.76,7.44,-4.65,-0.05,0.06,-0.04,U
208,242,5,2,22,2.79,7.59,-5.01,-0.08,-0.04,0.00,U
208,242,5,2,21,2.59,7.65,-4.81,0.02,-0.27,0.07,U
208,241,5,3,21,2.83,7.48,-4.81,-0.08,0.03,0.01,U
207,243,5,4,22,2.74,7.50,-4.87,0.00,0.05,0.07,U
206,242,4,2,22,3.03,7.51,-4.94,-0.10,0.00,-0.04,U
207,242,5,2,21,2.96,7.39,-4.93,0.03,-0.01,0.02,U
206,242,5,1,21,2.64,7.48,-4.67,0.03,-0.01,-0.01,U
208,242,5,2,21,2.55,7.56,-4.85,-0.04,0.00,0.03,U
206,242,6,2,22,3.12,7.43,-4.67,0.02,0.01,-0.04,U
208,242,4,2,22,2.65,7.53,-5.07,-0.04,-0.02,0.05,U
207,243,5,2,21,2.65,7.56,-5.04,-0.15,-0.14,-0.04,U
207,243,4,1,23,2.75,7.80,-4.49,-0.17,0.06,0.09,U
208,242,6,2,22,2.72,7.76,-4.03,-0.14,-0.01,-0.06,U
207,242,5,3,21,2.64,8.01,-4.28,0.02,-0.10,-0.00,U
207,242,5,2,23,2.47,7.90,-4.30,-0.07,-0.03,-0.06,U
208,242,5,2,22,2.35,7.95,-4.47,0.02,-0.05,-0.00,U
208,242,6,2,22,2.30,7.95,-4.38,-0.03,0.00,-0.06,U
209,243,7,3,24,2.31,8.09,-4.14,-0.02,0.06,-0.06,U
207,242,6,2,21,2.07,8.01,-4.45,0.00,0.08,-0.14,U
207,243,5,2,21,2.17,8.06,-4.49,-0.00,0.02,-0.09,U
154,245,6,2,20,1.69,7.59,-5.18,-0.01,0.02,0.02,V
152,245,4,2,20,1.56,7.46,-5.05,-0.03,-0.07,-0.03,V
154,244,7,1,20,1.84,7.57,-5.14,-0.04,-0.03,0.05,V
155,243,8,1,22,1.67,7.69,-4.95,0.02,0.00,-0.01,V
153,244,5,2,21,1.55,7.42,-5.27,0.02,-0.05,-0.00,V
153,244,5,2,23,1.83,7.47,-5.41,-0.14,-0.04,0.14,V
154,245,6,1,20,2.15,8.01,-4.30,-0.19,-0.01,0.27,V
154,245,6,4,22,1.93,7.62,-4.65,0.01,0.13,0.18,V
156,244,6,3,22,3.40,7.53,-4.58,-0.07,0.19,0.26,V
154,245,4,2,20,3.23,7.54,-4.47,-0.07,-0.02,0.30,V
157,245,6,2,22,4.69,7.87,-4.14,0.17,-0.13,0.09,V
156,243,6,2,22,3.64,6.02,-6.15,0.12,-0.21,-0.31,V
155,245,6,3,19,3.13,7.27,-4.66,0.13,0.11,0.06,V
156,245,6,3,23,3.44,7.17,-5.45,-0.13,0.06,0.17,V
157,245,6,2,22,4.15,6.98,-4.80,-0.12,-0.04,0.00,V
156,244,5,3,21,3.90,7.30,-4.52,-0.07,0.07,-0.07,V
156,245,4,1,21,3.71,7.18,-4.70,0.00,-0.06,-0.03,V
156,245,6,1,21,3.92,7.41,-4.44,-0.08,-0.09,-0.01,V
157,244,5,1,21,3.81,7.35,-4.74,0.01,-0.01,-0.04,V
156,244,4,1,20,3.60,7.37,-4.68,-0.07,-0.09,0.01,V
156,244,4,1,20,3.75,7.28,-4.53,0.01,-0.06,0.04,V
157,244,7,3,21,3.83,7.18,-4.66,-0.00,-0.01,0.03,V
157,245,7,2,22,4.13,7.09,-4.92,-0.02,-0.04,0.02,V
157,244,5,1,21,3.63,7.20,-4.66,-0.03,0.01,-0.11,V
155,244,3,2,21,3.68,7.29,-4.64,0.09,0.00,-0.15,V
155,244,6,2,22,3.12,7.22,-4.99,0.17,0.00,-0.30,V
157,245,5,4,19,2.82,7.02,-5.35,0.19,-0.06,-0.40,V
156,245,5,2,21,1.80,7.24,-5.86,0.00,-0.07,-0.05,V
155,244,3,2,22,2.40,7.09,-5.24,0.02,-0.01,-0.01,V
156,245,5,2,21,2.45,7.14,-5.61,-0.05,-0.06,0.09,V
158,245,7,2,22,2.34,7.08,-5.53,-0.08,-0.06,-0.00,V
156,245,7,4,21,2.39,7.19,-5.34,-0.01,-0.01,0.00,V
157,245,4,2,21,2.33,7.20,-5.33,-0.02,-0.04,-0.01,V
156,245,6,2,20,2.43,7.09,-5.44,-0.02,-0.00,0.03,V
157,245,5,2,22,2.50,7.11,-5.59,-0.02,-0.05,-0.00,V
157,245,8,2,24,0.97,7.69,-5.19,-0.12,-0.78,-0.00,V
156,244,5,2,21,0.19,7.61,-5.78,-0.22,-0.32,-0.77,V
157,245,3,4,19,-0.30,7.20,-4.65,-0.09,-0.00,0.22,V
156,245,5,2,24,-0.38,7.59,-5.57,0.06,0.07,-0.08,V
157,244,6,3,22,-0.46,7.74,-4.61,0.05,0.05,0.01,V
156,245,6,2,22,-0.33,8.06,-5.00,-0.27,0.03,0.15,V
157,246,5,4,19,-0.61,7.61,-3.71,-0.02,0.15,0.36,V
158,244,4,1,21,1.10,7.27,-6.87,0.38,-0.23,0.30,V
159,244,6,4,21,2.27,7.21,-5.74,0.04,0.15,0.26,V
159,244,6,1,20,1.24,7.11,-6.00,0.02,0.02,0.11,V
159,244,5,2,21,1.42,7.24,-5.56,-0.08,-0.07,-0.17,V
161,243,8,2,22,1.28,7.09,-5.53,-0.13,0.15,0.09,V
158,243,6,2,23,0.80,6.98,-5.68,0.02,-0.01,-0.09,V
160,244,5,2,21,1.29,7.35,-5.54,-0.05,0.06,0.14,V
160,244,4,1,22,1.28,6.94,-5.58,0.02,0.01,0.02,V
159,244,5,2,21,0.83,6.45,-5.97,-0.33,0.23,0.12,V
160,244,7,2,21,1.57,7.10,-5.75,-0.28,0.13,0.51,V
159,245,5,5,19,3.24,7.12,-4.63,-0.29,0.13,0.58,V
160,243,7,3,23,4.09,7.29,-4.78,0.11,0.03,0.35,V
159,244,4,2,21,5.06,6.98,-4.59,0.04,0.13,-0.09,V
160,243,6,2,20,4.31,7.00,-4.45,-0.01,0.34,-0.04,V
159,244,5,2,21,4.14,6.81,-4.80,-0.01,0.01,0.05,V
160,243,5,2,20,5.91,7.71,-4.82,0.32,0.31,0.13,V
160,243,7,2,22,3.90,6.98,-4.07,-0.23,-0.10,-0.21,V
159,245,6,3,20,4.29,7.31,-4.55,-0.04,-0.05,0.10,V
159,244,7,3,20,3.79,7.41,-4.34,-0.22,-0.11,-0.28,V
159,244,5,2,21,3.91,7.23,-3.52,-0.19,-0.16,-0.19,V
160,244,4,2,22,3.28,7.20,-4.47,0.17,-0.33,0.09,V
160,244,5,1,20,2.90,7.05,-4.87,0.28,-0.13,-0.09,V
160,244,5,2,21,3.73,7.69,-4.79,0.00,0.03,-0.22,V
160,243,5,2,23,1.66,7.28,-4.73,-0.13,0.13,-0.15,V
159,244,5,3,23,2.22,7.50,-5.29,-0.09,0.00,0.06,V
159,245,6,4,21,2.41,7.65,-4.39,-0.04,0.14,-0.09,V
160,243,4,2,21,1.07,7.94,-6.13,-0.11,0.09,0.28,V
160,243,5,3,24,1.81,7.61,-4.21,-0.12,0.02,0.23,V
159,243,4,2,21,3.35,7.49,-4.25,0.07,-0.13,0.07,V
160,243,6,2,22,3.39,7.38,-4.93,0.15,0.22,-0.03,V
160,243,4,2,20,3.41,6.96,-4.79,-0.01,0.18,0.01,V
161,243,6,2,23,3.38,7.46,-5.58,0.13,0.08,0.02,V
160,243,7,2,22,2.98,7.18,-5.20,-0.11,0.03,0.03,V
160,244,5,4,23,3.52,7.20,-4.73,-0.02,-0.02,0.01,V
160,244,4,2,22,3.53,7.38,-4.83,0.02,-0.05,-0.07,V
159,244,5,2,21,3.30,7.18,-4.95,0.04,0.00,-0.09,V
161,243,6,2,23,3.08,7.30,-4.81,0.03,0.05,-0.01,V
160,242,5,2,22,2.89,7.35,-4.94,-0.06,0.04,0.00,V
160,243,4,1,22,2.92,7.21,-5.07,-0.02,-0.12,-0.01,V
160,244,3,6,19,3.28,7.26,-4.82,-0.04,-0.08,0.04,V
177,244,3,4,21,1.13,6.93,-5.57,0.00,-0.07,0.02,W
178,243,7,5,21,1.08,6.93,-5.94,-0.01,-0.05,0.03,W
177,245,5,4,22,1.18,6.82,-6.07,-0.02,-0.11,0.06,W
177,244,4,5,21,1.22,6.96,-5.95,-0.06,-0.03,0.01,W
178,244,5,5,21,1.10,6.87,-5.95,-0.04,-0.07,0.03,W
178,243,6,3,22,1.18,7.00,-5.70,-0.07,-0.05,0.00,W
177,244,5,4,21,0.99,7.07,-5.83,0.01,-0.05,-0.06,W
176,244,6,5,20,0.62,7.16,-5.79,-0.02,-0.08,-0.03,W
179,244,3,6,19,0.59,6.85,-6.07,-0.04,-0.12,0.03,W
178,244,5,5,19,0.49,7.00,-5.74,-0.03,-0.03,0.02,W
180,245,4,5,18,0.87,6.99,-5.80,-0.05,0.02,-0.15,W
179,245,5,5,18,0.34,6.95,-5.74,-0.09,0.14,-0.00,W
183,243,5,5,17,0.45,7.18,-5.81,-0.02,0.03,-0.02,W
181,245,5,7,19,0.29,7.12,-5.75,0.08,-0.04,0.01,W
183,243,8,5,20,0.31,7.06,-5.70,0.02,-0.03,-0.03,W
181,244,5,5,18,0.33,7.07,-5.74,-0.04,-0.01,0.01,W
181,244,4,4,17,0.28,7.07,-5.90,-0.04,-0.02,0.06,W
181,243,4,6,18,0.39,7.12,-5.66,-0.06,-0.12,0.08,W
181,244,3,4,17,0.27,7.01,-5.81,-0.03,-0.11,0.12,W
182,244,6,6,17,0.70,7.13,-5.75,0.00,-0.09,0.17,W
182,245,6,5,17,0.89,7.13,-5.84,-0.04,-0.02,0.05,W
181,244,4,6,18,0.77,7.13,-5.61,-0.01,0.00,0.01,W
180,243,6,7,18,0.67,7.06,-5.91,-0.05,-0.02,0.02,W
181,245,5,5,17,0.88,7.07,-5.72,-0.03,-0.01,0.02,W
181,244,5,5,17,0.76,7.12,-5.80,-0.01,-0.00,-0.00,W
181,244,5,6,19,0.50,7.24,-5.49,-0.04,0.01,0.02,W
180,245,6,5,18,0.71,7.25,-5.74,-0.02,-0.02,-0.10,W
181,244,5,6,19,0.65,7.18,-5.61,-0.03,0.08,-0.13,W
180,244,6,5,18,0.19,7.05,-5.73,0.05,0.05,-0.39,W
180,244,5,5,17,-0.24,6.96,-5.93,0.04,-0.01,-0.05,W
180,244,4,5,19,0.23,6.85,-5.88,0.11,0.16,-0.05,W
181,244,5,4,19,0.15,6.87,-6.01,0.00,0.11,-0.01,W
180,244,5,5,20,0.22,6.85,-6.18,-0.04,0.03,-0.02,W
180,244,4,5,18,0.16,6.86,-5.88,0.02,-0.04,0.07,W
181,244,3,6,19,0.09,6.79,-6.15,-0.04,-0.09,0.00,W
181,244,5,6,19,0.20,6.77,-6.04,-0.05,-0.01,0.03,W
182,244,7,6,21,-0.09,6.78,-6.04,0.03,-0.07,-0.01,W
181,245,5,5,19,-0.17,6.72,-6.08,-0.02,-0.01,-0.02,W
181,244,5,5,20,0.05,6.73,-6.03,-0.07,0.01,0.01,W
182,245,4,5,18,0.06,6.85,-6.03,-0.00,0.00,-0.02,W
181,246,5,8,19,-0.28,6.79,-6.04,-0.01,0.03,-0.02,W
181,244,4,5,18,-0.15,6.76,-6.24,-0.02,0.05,-0.00,W
180,245,5,5,19,0.12,6.88,-5.95,-0.00,-0.03,0.00,W
181,245,5,5,19,0.20,6.78,-5.99,-0.10,-0.03,0.02,W
182,245,6,5,20,0.03,6.90,-6.00,0.04,-0.13,0.01,W
180,243,6,3,20,-0.08,6.82,-6.02,-0.01,-0.06,0.00,W
181,244,5,5,20,0.09,6.90,-5.89,-0.03,-0.08,0.01,W
181,245,5,4,20,-0.04,6.90,-6.01,-0.08,-0.02,0.02,W
181,244,3,6,19,0.08,7.01,-5.76,-0.01,-0.05,0.00,W
180,245,3,5,19,-0.06,6.85,-5.97,-0.02,-0.01,0.02,W
181,244,5,4,20,-0.08,6.81,-6.10,-0.09,-0.01,0.03,W
182,244,5,5,20,-0.08,6.88,-6.09,-0.04,0.00,0.02,W
181,245,7,5,19,-0.00,6.94,-5.95,-0.03,-0.01,-0.01,W
180,243,6,5,20,-0.03,6.94,-5.89,-0.07,0.02,0.01,W
161,241,5,6,16,0.47,7.41,-4.96,-0.02,0.05,0.00,W
161,241,4,5,14,0.68,7.63,-5.41,-0.04,-0.04,0.02,W
161,242,5,6,17,0.64,7.49,-5.17,-0.04,-0.05,-0.01,W
163,241,4,5,16,0.79,7.38,-5.48,-0.01,0.05,-0.05,W
161,241,5,5,15,0.49,7.66,-5.46,-0.54,0.15,-0.03,W
157,241,5,5,15,0.58,7.94,-4.28,0.04,-0.06,0.02,W
155,240,7,4,14,0.86,7.98,-4.76,0.06,0.16,0.04,W
155,241,5,6,15,0.85,7.89,-4.78,-0.06,-0.16,0.01,W
155,242,3,6,15,0.98,7.79,-4.93,-0.01,-0.15,-0.03,W
155,241,6,6,18,0.78,7.84,-4.91,-0.04,-0.21,0.02,W
155,240,5,4,15,0.81,7.72,-4.79,-0.14,-0.27,0.02,W
152,241,4,5,16,0.26,7.98,-4.76,0.10,-0.08,-0.04,W
155,241,5,5,16,0.48,7.33,-5.37,0.03,0.07,-0.00,W
155,242,5,4,17,0.50,7.71,-5.22,-0.06,-0.02,0.02,W
155,241,4,5,15,0.51,7.77,-5.06,-0.08,-0.04,-0.02,W
156,242,5,6,17,0.62,7.75,-4.96,-0.08,0.02,0.03,W
157,242,7,6,18,0.77,7.82,-5.04,-0.03,-0.02,-0.01,W
156,242,6,7,16,0.59,7.61,-5.17,-0.10,-0.00,-0.05,W
156,242,6,5,16,0.21,7.76,-4.79,0.05,-0.02,0.05,W
