THUMB,INDEX,MIDDLE,RING,LITTLE,ACCEL_X,ACCEL_Y,ACCEL_Z,GYRO_X,GYRO_Y,GYRO_Z,RESULT
236,136,1,2,19,1.40,9.02,-2.37,0.01,0.04,-0.00,A
237,137,3,4,19,1.30,9.08,-2.54,-0.04,-0.07,0.01,A
236,137,2,1,18,1.57,9.01,-2.49,-0.01,0.00,0.01,A
236,135,2,1,18,0.92,9.13,-2.59,-0.03,0.02,0.00,A
237,136,3,2,15,1.34,9.20,-2.38,0.02,0.02,0.02,A
236,137,3,3,18,0.99,9.16,-2.46,-0.03,-0.04,-0.01,A
237,136,1,2,18,1.21,9.16,-2.55,0.02,0.02,-0.01,A
236,136,2,1,18,1.09,9.10,-2.49,-0.00,0.00,-0.01,A
236,136,2,1,17,1.03,9.21,-2.51,-0.04,-0.03,-0.01,A
236,136,1,2,19,1.09,9.27,-2.38,-0.08,-0.02,0.01,A
236,137,3,2,16,0.94,9.07,-2.54,0.02,-0.01,-0.01,A
237,137,2,3,17,0.90,9.27,-2.38,-0.01,0.01,-0.01,A
237,137,3,1,18,1.10,9.09,-2.45,0.01,-0.01,0.03,A
237,137,2,2,18,0.86,9.22,-2.51,0.01,0.03,-0.00,A
238,136,2,1,18,1.09,9.06,-2.51,-0.04,-0.04,0.01,A
237,136,0,1,16,0.96,9.19,-2.42,-0.03,-0.05,0.01,A
236,137,2,2,17,1.05,9.18,-2.41,-0.01,-0.03,0.01,A
237,137,2,2,18,1.02,9.10,-2.46,-0.04,-0.01,0.01,A
237,136,2,1,18,1.03,9.19,-2.42,-0.04,-0.06,0.01,A
238,137,2,2,18,1.10,9.12,-2.50,0.01,-0.03,0.00,A
237,137,2,3,18,1.14,9.16,-2.50,-0.02,-0.01,-0.01,A
237,136,2,2,19,1.14,9.16,-2.43,-0.03,-0.01,0.01,A
237,138,2,2,18,1.07,9.21,-2.36,-0.01,-0.02,-0.01,A
237,137,2,2,18,1.01,9.20,-2.39,-0.06,-0.08,-0.01,A
237,136,3,3,18,1.12,9.14,-2.39,-0.02,-0.01,-0.00,A
237,136,3,0,18,1.22,9.13,-2.42,-0.00,-0.04,-0.01,A
237,138,1,2,17,1.10,9.23,-2.41,-0.02,0.02,0.00,A
237,136,2,1,18,1.15,9.18,-2.35,0.00,-0.01,-0.01,A
237,137,2,3,18,1.09,9.29,-2.22,-0.02,0.02,-0.02,A
237,136,3,2,18,1.14,9.19,-2.18,-0.05,0.06,-0.03,A
237,138,2,2,18,0.95,9.16,-2.61,0.00,0.01,-0.07,A
237,137,1,1,19,0.86,9.17,-2.14,0.00,-0.12,0.04,A
237,137,1,2,18,0.94,9.15,-2.70,0.02,-0.09,-0.00,A
237,137,3,3,19,0.92,9.08,-2.63,-0.04,-0.04,0.01,A
236,137,3,2,18,0.82,9.12,-2.70,-0.01,0.00,0.03,A
237,138,2,2,18,0.98,9.23,-2.40,-0.02,0.00,-0.02,A
237,137,2,2,19,0.91,9.17,-2.49,-0.07,-0.01,-0.02,A
238,138,1,1,18,0.85,9.19,-2.38,-0.02,-0.02,0.00,A
237,137,1,2,18,0.82,9.23,-2.53,-0.01,0.04,-0.03,A
235,140,2,3,17,0.88,9.52,-1.19,-0.07,-0.02,-0.00,A
236,141,3,3,17,0.72,9.55,-1.22,-0.02,-0.02,0.01,A
235,140,1,2,17,0.76,9.67,-1.16,0.02,-0.01,0.00,A
236,141,2,2,18,0.95,9.56,-1.16,-0.04,-0.01,0.00,A
236,140,2,3,18,0.84,9.52,-1.17,-0.01,-0.01,0.01,A
236,142,1,1,18,0.91,9.57,-1.21,0.00,-0.02,0.04,A
236,141,3,2,17,0.90,9.58,-1.23,-0.05,-0.00,-0.00,A
235,141,2,1,18,0.83,9.53,-1.25,-0.01,-0.02,0.00,A
236,142,2,3,17,0.79,9.53,-1.31,-0.03,-0.02,0.03,A
236,140,1,1,17,0.85,9.54,-1.08,-0.02,-0.06,-0.03,A
235,142,1,3,17,0.63,9.60,-1.43,-0.02,-0.00,0.03,A
235,142,3,2,19,0.91,9.59,-1.18,-0.03,0.07,0.03,A
236,142,1,0,17,0.45,9.38,-1.29,-0.03,0.01,-0.04,A
235,142,3,3,17,0.73,9.38,-1.29,0.09,-0.04,0.05,A
235,142,3,3,17,0.99,9.58,-1.59,0.03,0.01,0.06,A
237,142,2,1,16,1.10,9.42,-1.51,-0.05,0.04,-0.03,A
236,143,1,2,17,0.86,9.52,-1.40,-0.03,-0.06,-0.06,A
235,141,2,2,17,0.74,9.48,-1.47,-0.01,-0.03,0.00,A
235,141,2,3,17,0.99,9.50,-1.42,-0.00,-0.02,-0.02,A
236,141,3,2,17,0.60,9.45,-1.60,-0.03,-0.03,0.00,A
235,142,1,2,17,0.85,9.53,-1.60,0.02,-0.03,0.01,A
236,142,1,2,17,0.81,9.46,-1.55,-0.01,0.01,-0.01,A
236,142,3,2,17,0.72,9.53,-1.60,-0.01,-0.01,0.01,A
234,141,2,1,18,0.76,9.44,-1.60,-0.00,-0.05,0.03,A
236,143,2,2,17,0.91,9.44,-1.61,-0.01,0.01,0.01,A
235,141,2,3,18,0.80,9.48,-1.69,-0.00,0.01,0.02,A
190,239,5,6,30,0.03,8.56,-3.75,-0.02,-0.02,0.00,B
191,239,4,4,31,-0.06,8.59,-3.81,-0.01,0.01,-0.01,B
189,238,4,5,30,0.17,8.52,-3.73,-0.03,0.02,0.01,B
190,238,5,4,31,0.06,8.58,-3.75,-0.01,-0.02,0.02,B
191,239,6,6,31,0.02,8.61,-3.74,-0.02,0.02,0.01,B
190,239,6,5,31,0.12,8.54,-3.74,0.01,0.03,0.01,B
190,239,5,5,32,0.18,8.57,-3.76,-0.02,0.03,-0.01,B
190,238,5,5,32,-0.04,8.64,-3.59,-0.01,-0.00,-0.04,B
190,238,4,5,32,0.19,8.51,-3.95,-0.03,0.03,-0.02,B
190,239,5,6,31,0.22,8.58,-3.64,-0.01,-0.01,-0.03,B
190,238,4,5,31,-0.08,8.54,-3.86,-0.01,-0.01,0.01,B
190,238,6,7,31,0.03,8.57,-3.69,-0.02,-0.03,0.02,B
191,240,6,5,31,0.13,8.52,-3.84,-0.06,0.02,-0.02,B
192,239,6,5,32,-0.07,8.56,-3.87,0.00,-0.02,0.01,B
191,238,5,6,33,0.11,8.57,-3.72,-0.03,-0.02,0.00,B
190,238,5,5,30,0.08,8.60,-3.78,-0.02,-0.02,0.01,B
192,239,4,5,31,0.14,8.60,-3.66,-0.03,-0.01,0.01,B
190,239,4,6,31,0.07,8.60,-3.78,-0.01,-0.02,0.00,B
190,239,4,5,29,0.00,8.57,-3.81,-0.02,-0.04,-0.00,B
192,239,6,6,30,-0.03,8.57,-3.77,0.01,-0.01,0.00,B
193,239,6,5,32,0.09,8.55,-3.76,-0.04,-0.02,0.00,B
192,239,4,5,32,0.16,8.59,-3.67,-0.02,-0.00,0.01,B
191,239,5,4,30,0.07,8.63,-3.73,-0.03,-0.00,-0.01,B
192,239,4,5,30,0.06,8.60,-3.81,-0.02,-0.03,0.01,B
191,239,4,5,30,0.02,8.71,-3.54,-0.05,-0.00,0.08,B
193,238,6,6,33,0.12,8.53,-3.87,0.03,-0.01,-0.04,B
238,148,1,2,16,0.28,9.13,-2.56,-0.02,-0.04,0.02,C
238,148,2,1,16,0.29,9.15,-2.60,-0.02,-0.01,-0.01,C
239,150,3,2,18,0.19,9.14,-2.55,-0.00,-0.01,-0.00,C
238,148,2,1,18,0.32,9.13,-2.56,-0.01,-0.03,0.00,C
239,149,1,1,17,0.28,9.10,-2.65,-0.04,0.00,-0.04,C
238,148,3,3,17,0.33,9.11,-2.55,-0.01,0.00,-0.00,C
238,148,1,2,17,0.36,9.21,-2.51,-0.02,-0.01,0.01,C
238,148,1,2,17,0.26,9.16,-2.55,-0.07,0.01,-0.02,C
238,148,1,1,15,0.30,9.20,-2.41,-0.02,-0.02,-0.00,C
239,149,1,3,16,0.14,9.20,-2.49,-0.01,-0.01,0.00,C
238,149,2,1,17,0.24,9.18,-2.47,-0.03,-0.03,0.01,C
238,148,1,2,17,0.17,9.20,-2.45,0.02,-0.05,0.02,C
237,149,1,2,18,0.27,9.21,-2.41,-0.00,-0.00,0.01,C
238,148,2,2,17,0.28,9.16,-2.54,-0.05,-0.05,-0.01,C
238,149,2,1,17,0.33,9.15,-2.55,-0.02,-0.03,0.01,C
238,149,2,2,17,0.24,9.28,-2.38,0.03,-0.04,0.06,C
239,150,3,3,17,0.30,9.23,-2.47,-0.01,-0.01,0.02,C
238,150,2,2,16,0.37,9.12,-2.45,0.06,-0.03,0.01,C
238,150,2,1,16,0.40,9.00,-2.94,0.03,-0.06,0.02,C
238,148,2,2,17,0.32,9.09,-2.80,-0.06,-0.04,0.02,C
237,148,3,2,18,0.40,9.14,-2.55,-0.03,-0.01,0.03,C
239,149,2,2,18,0.45,9.06,-2.67,0.04,-0.06,0.03,C
239,150,2,2,15,0.52,9.03,-3.01,0.05,0.01,0.02,C
238,150,1,1,16,0.55,9.01,-2.87,-0.06,-0.02,0.00,C
238,150,2,1,17,0.49,9.05,-2.68,0.01,0.01,0.02,C
238,150,2,1,16,0.49,9.02,-2.92,-0.02,-0.02,0.02,C
238,149,2,1,17,0.78,9.03,-2.74,0.06,-0.04,0.03,C
239,141,2,1,14,-0.13,8.35,-4.01,0.04,-0.02,0.04,C
239,143,2,3,14,-0.43,8.46,-4.02,-0.05,-0.02,0.00,C
233,141,2,1,13,-0.25,8.38,-4.15,-0.04,-0.03,0.01,C
240,142,2,2,15,-0.17,8.44,-3.98,-0.04,-0.02,-0.02,C
239,142,1,1,14,-0.26,8.47,-3.84,-0.01,-0.02,0.01,C
239,144,0,1,13,-0.28,8.37,-3.97,0.02,0.00,0.02,C
239,141,1,1,14,-0.31,8.45,-3.94,0.02,-0.01,-0.01,C
239,144,1,2,13,-0.27,8.31,-3.97,0.06,0.10,0.01,C
238,142,1,1,14,-0.13,8.41,-4.06,-0.06,-0.04,0.03,C
239,143,2,3,15,-0.30,8.46,-3.85,0.00,0.04,-0.02,C
239,141,1,2,13,-0.01,8.31,-4.13,-0.03,-0.04,0.03,C
239,143,1,1,14,-0.31,8.40,-3.97,-0.06,-0.07,0.02,C
239,143,1,1,14,0.79,8.32,-3.78,0.14,0.97,-0.06,C
239,143,1,2,15,1.27,8.20,-4.48,0.01,0.54,-0.08,C
239,143,1,2,14,0.94,8.34,-4.38,-0.00,0.06,-0.12,C
239,143,2,2,14,1.56,8.20,-4.15,-0.06,0.23,-0.19,C
237,142,1,2,15,1.46,8.48,-4.03,-0.05,0.31,-0.10,C
239,143,3,3,15,1.69,8.36,-3.60,-0.08,0.03,-0.11,C
238,142,1,1,15,1.30,8.55,-3.76,-0.05,-0.37,0.01,C
240,142,2,1,16,0.69,8.58,-3.79,0.04,-0.25,0.01,C
239,142,1,1,15,0.80,8.46,-3.90,-0.01,0.44,-0.00,C
238,144,0,1,14,2.44,8.42,-3.62,-0.07,0.01,-0.06,C
240,147,2,1,15,1.29,8.67,-3.60,-0.06,-0.15,-0.07,C
239,143,0,1,14,1.17,8.80,-3.15,-0.09,-0.84,-0.02,C
241,145,2,3,15,0.35,8.78,-3.52,0.01,-0.45,0.05,C
241,144,3,1,15,-0.73,8.93,-3.43,0.05,-0.49,0.07,C
238,144,1,1,14,0.03,8.68,-3.64,0.01,-0.05,0.03,C
242,144,0,1,14,-0.72,8.80,-3.67,0.10,0.04,-0.03,C
239,143,1,3,15,-0.52,8.64,-3.55,0.04,0.16,0.04,C
239,143,2,2,15,-0.37,8.55,-3.81,-0.05,-0.03,-0.00,C
238,142,1,2,14,-0.19,8.57,-3.55,-0.03,-0.05,-0.00,C
238,144,0,2,16,-0.20,8.65,-3.69,-0.05,-0.01,-0.00,C
239,143,1,2,15,-0.15,8.63,-3.61,-0.00,-0.06,-0.04,C
239,140,1,2,14,-0.55,8.48,-3.83,0.02,-0.03,-0.01,C
239,143,2,2,14,-0.45,8.51,-3.96,-0.03,0.01,-0.01,C
240,143,3,1,16,-0.49,8.56,-3.77,-0.07,-0.01,-0.02,C
239,144,2,2,15,-0.63,8.58,-3.81,0.00,0.02,0.01,C
239,145,2,3,15,0.10,8.51,-3.82,-0.01,0.05,-0.00,C
241,145,2,3,14,-0.30,8.57,-3.81,-0.06,-0.09,-0.02,C
239,145,2,2,15,-0.24,8.66,-3.83,0.01,-0.09,0.03,C
240,144,0,2,14,-0.26,8.56,-3.78,-0.03,-0.04,0.01,C
239,145,2,3,15,-0.30,8.51,-3.75,-0.00,-0.01,0.01,C
240,143,1,1,14,-0.13,8.51,-3.83,-0.07,-0.01,-0.02,C
240,145,2,2,14,-0.39,8.53,-3.73,-0.01,-0.03,-0.01,C
239,144,1,1,14,-0.31,8.60,-3.72,-0.03,-0.04,0.01,C
240,144,2,0,16,-0.31,8.54,-3.78,-0.03,-0.05,-0.01,C
240,144,1,2,15,-0.28,8.61,-3.71,-0.01,-0.02,0.01,C
239,143,3,3,15,-0.42,8.55,-3.76,-0.03,-0.00,-0.01,C
240,147,1,1,15,-0.29,8.59,-3.77,-0.07,-0.06,-0.00,C
239,144,1,1,14,-0.48,8.61,-3.57,-0.03,-0.06,-0.02,C
238,145,0,1,15,-0.56,8.54,-3.68,-0.03,-0.00,0.01,C
239,144,1,1,15,-0.34,8.61,-3.54,-0.07,-0.04,-0.01,C
239,145,1,2,15,-0.60,8.66,-3.62,-0.03,0.03,0.00,C
240,144,0,1,14,-0.59,8.68,-3.39,0.03,0.03,0.00,C
240,145,1,1,15,-0.39,8.55,-3.73,0.01,-0.12,0.03,C
239,144,1,1,15,-0.43,8.59,-3.74,-0.01,-0.01,0.00,C
241,143,1,1,15,-0.45,8.52,-3.72,-0.01,-0.05,0.01,C
240,144,1,1,14,-0.30,8.55,-3.71,-0.03,-0.02,0.01,C
239,145,3,3,16,-0.56,8.63,-3.66,-0.03,-0.03,0.01,C
239,143,2,1,14,-0.62,8.51,-3.76,0.00,-0.06,0.01,C
240,145,2,1,15,-0.42,8.62,-3.62,-0.04,-0.01,0.03,C
239,138,1,2,14,-0.49,8.60,-3.70,-0.01,-0.05,0.00,C
239,144,2,1,15,-0.51,8.63,-3.60,-0.03,0.00,0.00,C
240,144,1,2,15,-0.54,8.67,-3.56,-0.01,0.02,-0.00,C
240,148,0,1,14,0.06,8.70,-3.61,0.01,0.38,-0.08,C
239,144,1,2,16,0.83,8.35,-4.01,-0.03,-0.08,-0.02,C
239,144,1,2,15,0.30,8.45,-4.03,-0.05,-0.32,-0.04,C
240,145,1,2,14,0.17,8.50,-3.84,-0.07,-0.12,-0.04,C
239,146,3,3,15,0.05,8.50,-3.85,-0.00,-0.02,-0.01,C
240,144,1,2,15,-0.05,8.48,-3.92,0.01,-0.01,0.02,C
240,148,1,2,15,0.02,8.53,-3.84,-0.02,-0.01,0.01,C
240,145,3,1,16,0.13,8.53,-3.80,-0.03,-0.11,-0.02,C
240,145,3,2,15,-0.10,8.48,-3.85,-0.04,-0.03,-0.01,C
239,145,1,2,15,-0.09,8.54,-3.84,-0.01,-0.04,0.02,C
240,146,1,1,15,-0.07,8.52,-3.81,-0.03,-0.02,0.02,C
240,144,1,1,15,0.06,8.47,-3.88,-0.08,-0.05,-0.01,C
239,146,1,1,15,-0.02,8.48,-3.91,0.02,-0.03,0.03,C
238,145,2,3,15,-0.08,8.52,-3.77,-0.01,-0.02,0.01,C
240,143,2,2,14,-0.04,8.49,-3.91,0.01,-0.05,0.01,C
239,146,1,0,15,0.06,8.62,-3.80,-0.05,-0.02,0.01,C
239,145,2,1,15,-0.10,8.61,-3.72,-0.05,-0.02,-0.00,C
238,146,2,1,16,0.02,8.62,-3.66,-0.03,-0.02,0.03,C
239,144,1,0,15,-0.04,8.57,-3.75,-0.02,-0.04,0.02,C
240,146,0,2,16,-0.01,8.65,-3.65,-0.02,-0.04,0.02,C
241,146,3,2,15,-0.11,8.57,-3.74,0.00,-0.03,0.01,C
239,145,1,1,15,0.05,8.59,-3.83,-0.01,0.00,0.01,C
239,147,3,3,15,-0.10,8.61,-3.72,-0.02,-0.02,0.01,C
205,234,1,1,17,3.83,8.95,-1.21,-0.08,-0.02,-0.05,D
203,234,2,2,17,3.99,8.96,-1.04,-0.07,-0.06,-0.02,D
204,234,1,1,18,3.74,9.00,-1.06,-0.05,-0.14,-0.00,D
205,235,0,2,18,3.72,8.99,-1.20,-0.02,-0.01,0.02,D
205,234,1,1,17,3.83,8.99,-1.23,0.00,-0.07,-0.03,D
204,235,2,2,17,3.72,9.00,-1.25,-0.05,-0.03,-0.02,D
204,235,1,3,18,3.68,9.02,-1.20,-0.06,-0.02,-0.03,D
205,234,0,1,16,3.32,9.13,-0.93,-0.07,0.03,-0.05,D
204,235,2,2,16,3.39,9.11,-1.18,0.03,0.02,-0.00,D
204,233,2,1,16,3.52,9.14,-1.24,0.03,-0.02,0.03,D
205,235,0,2,15,3.44,9.00,-1.23,-0.01,0.01,-0.01,D
206,234,1,2,17,3.44,9.06,-1.30,-0.01,-0.02,0.01,D
205,234,2,1,16,3.43,9.06,-1.41,0.01,-0.03,-0.00,D
207,234,1,0,16,3.42,9.00,-1.42,-0.02,-0.04,-0.02,D
207,234,1,2,17,3.23,8.89,-1.44,0.01,-0.01,0.03,D
206,235,0,1,16,3.38,8.94,-1.42,0.08,-0.06,0.05,D
207,234,1,1,17,3.50,8.97,-1.58,0.08,0.02,0.10,D
205,235,0,1,17,4.36,8.88,-1.76,-0.01,0.09,0.09,D
206,234,1,1,17,3.75,8.71,-1.96,0.11,-0.11,-0.03,D
207,234,1,0,17,3.84,8.55,-2.11,0.07,-0.12,-0.06,D
207,235,4,3,18,3.64,8.39,-2.21,0.00,0.03,0.01,D
207,234,2,2,17,4.06,8.76,-2.29,0.01,0.04,0.05,D
208,234,0,2,17,3.88,8.59,-2.29,0.01,-0.00,-0.03,D
207,234,1,1,17,3.75,8.58,-2.36,0.02,0.04,-0.01,D
207,234,1,1,17,3.68,8.58,-2.41,-0.03,-0.07,0.00,D
207,235,1,2,17,3.84,8.56,-2.35,-0.01,-0.05,-0.03,D
208,234,1,2,18,3.61,8.66,-2.26,-0.05,0.02,-0.04,D
183,150,1,1,14,-0.70,9.09,-2.65,-0.03,-0.08,0.00,E
184,150,3,2,13,-0.77,9.18,-2.65,0.07,-0.14,-0.16,E
185,152,2,3,14,-0.86,8.92,-2.46,-0.03,-0.09,-0.03,E
184,151,3,2,13,-1.32,9.07,-2.58,-0.03,0.01,-0.00,E
183,149,1,3,14,-1.28,8.96,-2.72,-0.02,0.08,0.02,E
185,150,2,2,13,-0.98,8.99,-2.59,-0.00,0.10,0.03,E
185,151,2,2,14,-0.81,9.01,-2.74,0.03,0.03,0.06,E
185,150,0,1,14,-0.58,9.15,-2.66,-0.03,0.11,0.04,E
184,150,2,2,13,-0.47,8.91,-2.87,0.01,0.03,0.08,E
185,149,4,2,14,-0.19,9.10,-2.95,0.03,-0.01,0.08,E
183,151,3,1,13,0.03,9.03,-2.81,0.01,0.03,0.11,E
184,150,1,2,15,-0.06,8.95,-3.08,0.06,0.03,0.05,E
184,151,1,3,14,0.13,8.94,-3.38,-0.08,0.02,0.07,E
184,151,2,4,14,0.15,9.04,-2.86,0.03,0.06,-0.03,E
182,151,1,3,14,0.02,9.00,-2.90,0.02,0.00,0.01,E
184,151,4,1,15,0.07,8.90,-3.15,-0.04,-0.03,-0.04,E
185,152,2,0,14,0.17,9.02,-3.04,-0.01,-0.06,0.01,E
185,150,1,3,15,0.04,9.05,-2.46,0.01,0.02,0.03,E
184,151,3,4,14,0.38,8.89,-2.90,-0.02,0.07,0.00,E
184,151,2,2,15,0.19,8.91,-3.47,0.14,-0.03,-0.08,E
184,150,1,1,14,-0.11,8.60,-3.36,0.07,-0.02,-0.05,E
183,151,2,3,15,-0.17,8.57,-3.89,0.04,0.01,0.01,E
184,151,2,3,14,-0.31,8.54,-4.00,-0.07,-0.08,0.00,E
185,151,2,2,15,0.11,8.79,-3.39,0.00,0.07,-0.01,E
185,150,3,2,15,-0.34,8.53,-3.77,-0.06,-0.06,0.02,E
184,151,2,2,15,-0.37,8.70,-3.76,-0.01,-0.06,-0.01,E
183,153,2,2,14,-0.07,8.80,-3.43,-0.04,-0.05,-0.02,E
185,151,2,2,15,-0.04,8.90,-3.25,-0.11,-0.04,0.00,E
183,151,2,1,14,-0.06,8.76,-3.34,-0.04,-0.06,-0.02,E
184,151,2,2,15,-0.30,8.90,-3.24,-0.05,0.01,-0.06,E
184,151,3,3,15,-0.22,8.87,-3.03,-0.05,0.00,-0.07,E
185,152,3,1,14,-0.43,8.89,-3.13,-0.08,0.00,0.02,E
185,151,2,2,15,-0.25,8.91,-3.06,-0.09,-0.01,0.01,E
184,150,1,2,15,-0.55,8.82,-2.98,-0.06,-0.09,-0.00,E
185,151,2,1,15,-0.37,8.96,-3.13,-0.04,-0.05,0.01,E
185,151,2,3,16,-0.46,9.00,-2.77,-0.02,-0.02,-0.03,E
184,152,3,2,14,-0.45,9.00,-2.65,-0.03,-0.04,-0.01,E
185,151,2,2,15,-0.46,9.06,-2.61,0.02,0.06,0.06,E
184,151,1,3,15,-0.20,9.22,-2.36,-0.05,0.07,-0.04,E
176,117,4,5,30,1.11,9.70,-0.32,0.00,-0.00,0.03,F
176,118,5,5,30,1.19,9.71,-0.32,-0.04,-0.04,0.05,F
176,117,5,5,31,1.20,9.70,-0.23,0.00,0.01,-0.01,F
177,118,5,5,31,1.41,9.76,-0.28,-0.03,0.01,0.00,F
177,117,4,5,30,1.18,9.70,-0.34,-0.01,-0.05,0.02,F
176,118,4,5,30,1.35,9.62,-0.34,-0.04,0.02,0.02,F
177,118,4,5,31,1.27,9.73,-0.33,-0.05,-0.05,0.00,F
178,118,4,5,31,1.23,9.75,-0.41,-0.05,-0.06,0.01,F
179,119,4,5,31,1.57,9.80,-0.14,-0.24,0.02,0.03,F
179,118,4,4,31,1.64,9.82,-0.01,-0.04,-0.06,-0.01,F
178,120,6,6,31,2.12,10.33,0.16,-0.37,0.04,-0.07,F
176,119,6,6,30,1.15,9.78,0.86,-0.16,0.08,-0.04,F
177,118,5,4,31,1.75,10.11,0.76,-0.02,-0.11,-0.02,F
176,118,5,4,31,1.28,10.09,0.63,0.04,-0.17,0.01,F
177,120,4,6,31,1.29,9.88,0.53,0.04,-0.06,-0.00,F
177,120,4,5,31,1.26,9.77,0.38,0.02,0.04,-0.02,F
177,120,4,5,31,1.40,9.83,0.25,-0.01,-0.07,-0.03,F
179,120,5,5,31,1.33,9.91,0.32,0.07,-0.10,-0.01,F
179,121,6,5,32,1.19,9.74,-0.03,0.05,-0.03,0.05,F
178,120,5,5,30,1.44,9.66,-0.21,-0.03,-0.03,-0.02,F
179,120,4,5,31,1.43,9.78,-0.24,-0.01,-0.07,-0.01,F
178,122,6,6,30,1.16,9.73,-0.11,-0.03,-0.07,0.01,F
178,121,4,5,30,1.17,9.72,-0.35,-0.01,-0.01,0.03,F
180,121,5,5,32,1.51,9.87,-0.23,-0.04,-0.02,-0.01,F
180,122,6,5,32,1.22,9.89,-0.27,-0.01,-0.06,0.02,F
180,121,5,7,31,1.05,9.62,-0.28,0.07,-0.10,-0.03,F
180,120,4,4,31,1.12,9.52,-0.45,0.05,-0.03,0.01,F
180,121,4,4,30,1.14,9.73,-0.51,0.03,0.10,0.04,F
180,121,5,5,32,2.85,9.60,-0.77,0.62,1.62,0.31,F
181,121,4,5,31,3.05,9.10,-1.28,-0.07,0.31,-0.03,F
181,123,5,5,31,3.09,9.32,-0.71,-0.00,0.35,-0.06,F
181,121,5,5,31,3.43,9.04,-0.73,-0.05,0.23,0.01,F
181,121,4,4,30,2.74,9.36,-0.62,0.02,-0.06,-0.02,F
182,123,4,5,31,2.59,9.45,-0.84,0.01,0.02,0.08,F
181,124,5,6,30,2.93,9.30,-0.64,-0.07,-0.14,0.01,F
181,123,5,6,31,3.07,9.12,-0.92,0.02,-0.04,0.02,F
182,122,5,4,30,3.08,9.21,-0.86,-0.06,-0.10,-0.01,F
182,123,6,5,31,2.74,9.34,-0.92,0.08,-0.06,-0.01,F
183,122,5,4,30,2.99,9.20,-1.12,-0.04,-0.09,0.01,F
183,122,6,5,31,3.21,9.28,-1.07,-0.03,-0.35,-0.02,F
182,122,5,6,31,2.84,9.31,-1.47,-0.04,-0.32,-0.07,F
183,123,6,5,31,2.92,9.21,-1.52,-0.12,-0.40,-0.03,F
182,121,6,5,30,1.12,9.69,-1.24,-0.29,-0.75,-0.17,F
181,121,5,5,31,1.18,9.62,-1.09,-0.11,-0.46,-0.05,F
181,122,6,4,31,1.38,9.47,-1.26,-0.13,-0.57,-0.08,F
181,123,5,6,30,1.32,9.59,-1.20,-0.01,-0.04,-0.00,F
180,123,4,5,30,0.84,9.46,-1.23,-0.09,-0.14,0.02,F
182,123,6,6,30,1.11,9.46,-1.19,-0.06,-0.06,-0.03,F
181,123,4,5,31,1.19,9.57,-1.21,0.01,0.05,0.01,F
182,123,6,5,31,1.19,9.55,-1.31,-0.03,-0.02,-0.01,F
182,123,5,4,30,1.01,9.64,-1.12,0.01,0.05,0.01,F
181,124,4,5,31,1.22,9.49,-1.23,0.01,0.08,-0.01,F
181,123,6,5,30,0.97,9.63,-1.08,0.02,-0.06,0.00,F
181,123,6,5,31,1.07,9.51,-1.31,0.01,0.03,-0.00,F
182,124,3,6,31,1.02,9.51,-1.19,0.02,0.02,0.01,F
180,123,4,5,30,0.98,9.46,-1.30,-0.01,0.05,0.00,F
182,123,5,5,30,0.13,9.84,-1.12,0.19,0.57,0.10,F
182,123,6,5,31,1.94,9.15,-1.56,-0.06,0.15,0.01,F
182,124,4,5,31,1.99,9.37,-1.61,-0.00,0.06,0.02,F
182,124,4,5,31,2.14,9.25,-1.69,0.08,0.25,0.04,F
182,124,4,5,30,2.10,9.23,-1.76,-0.00,-0.10,-0.06,F
182,125,6,5,30,2.07,9.25,-1.83,-0.04,-0.07,-0.01,F
182,124,4,5,31,1.94,9.33,-1.75,-0.09,-0.14,-0.02,F
183,123,5,5,32,1.60,9.47,-1.24,-0.26,-0.58,-0.08,F
183,123,4,5,31,1.37,9.44,-1.37,-0.09,-0.37,-0.08,F
183,124,6,5,31,1.05,9.52,-1.37,-0.06,-0.04,0.02,F
182,122,5,6,31,1.09,9.64,-1.10,-0.02,-0.02,0.00,F
183,123,5,5,32,1.25,9.45,-1.36,-0.05,0.02,0.04,F
182,122,5,5,30,1.21,9.60,-1.17,0.03,-0.02,0.01,F
183,125,7,6,31,0.98,9.65,-1.36,-0.05,-0.01,-0.03,F
182,124,5,5,30,1.09,9.56,-1.21,-0.02,-0.04,-0.01,F
182,123,5,5,32,1.08,9.56,-1.15,0.01,-0.01,0.00,F
183,125,6,5,31,1.15,9.50,-1.20,-0.05,-0.05,-0.00,F
182,123,4,6,30,1.10,9.55,-1.19,-0.01,-0.02,0.01,F
183,124,5,7,31,1.12,9.58,-1.28,-0.01,0.01,0.01,F
183,123,4,5,30,1.12,9.53,-1.29,0.01,0.03,-0.00,F
183,123,5,5,32,1.10,9.56,-1.31,-0.02,-0.04,0.01,F
183,124,6,4,31,1.12,9.49,-1.36,-0.01,-0.05,-0.00,F
183,125,3,5,31,1.06,9.48,-1.37,-0.02,-0.01,0.00,F
239,227,2,1,13,0.84,8.63,-3.73,-0.03,-0.02,0.00,G
239,228,1,1,14,0.91,8.45,-4.00,-0.04,-0.05,0.02,G
240,227,2,2,13,0.85,8.56,-3.85,-0.00,-0.03,0.05,G
238,227,1,0,13,1.14,8.52,-3.90,-0.00,0.00,-0.03,G
239,228,1,1,13,1.02,8.30,-4.00,0.01,-0.06,0.01,G
238,228,0,1,12,0.94,8.47,-4.07,-0.05,-0.01,0.01,G
237,228,2,2,14,0.97,8.48,-4.00,0.04,-0.01,0.02,G
239,228,2,1,14,1.07,8.36,-4.19,-0.01,-0.02,0.00,G
239,228,1,1,12,1.08,8.24,-4.21,-0.03,0.00,0.02,G
239,227,0,0,13,0.94,8.36,-4.09,-0.03,-0.05,0.00,G
239,228,1,0,13,1.14,8.43,-4.12,-0.08,0.03,-0.00,G
239,228,0,1,12,1.01,8.34,-4.26,0.01,0.03,0.01,G
239,228,1,1,14,1.06,8.28,-4.23,-0.00,-0.02,0.01,G
239,228,2,1,12,1.08,8.27,-4.23,-0.03,-0.01,0.02,G
239,227,1,0,13,0.98,8.15,-4.55,0.07,-0.04,0.02,G
239,227,1,1,14,1.20,8.31,-4.30,-0.03,-0.03,-0.01,G
239,227,1,0,13,1.07,8.09,-4.33,-0.03,-0.06,0.01,G
238,228,0,1,12,1.17,8.29,-4.28,0.02,-0.04,0.00,G
238,228,0,1,12,1.11,8.14,-4.29,0.01,-0.03,0.01,G
238,226,0,1,12,1.17,8.17,-4.45,-0.00,-0.02,0.01,G
239,228,1,2,13,1.08,8.14,-4.43,-0.02,-0.02,-0.00,G
239,229,2,1,13,1.13,8.12,-4.47,-0.04,-0.03,0.02,G
239,228,1,0,14,1.02,8.26,-4.34,0.00,-0.03,0.03,G
239,229,0,1,13,1.12,8.22,-4.38,0.01,-0.04,0.01,G
238,228,1,2,14,1.12,8.03,-4.39,-0.00,-0.03,0.00,G
238,228,0,1,13,1.27,8.15,-4.36,-0.00,-0.02,0.02,G
239,229,1,2,13,1.16,8.25,-4.37,0.01,-0.01,0.03,G
239,227,1,2,13,1.40,7.94,-4.42,0.03,0.01,0.00,G
239,229,1,1,13,1.27,8.07,-4.36,0.12,-0.02,-0.01,G
239,228,1,2,15,1.25,7.67,-5.27,0.10,-0.07,0.06,G
239,227,0,1,14,1.41,7.83,-4.78,-0.15,0.03,-0.01,G
240,227,2,1,14,1.26,7.78,-4.68,-0.03,0.02,-0.02,G
239,228,0,1,14,1.37,7.84,-4.79,-0.06,0.02,0.01,G
239,228,0,0,12,1.28,7.83,-4.73,-0.04,0.02,0.01,G
239,228,0,1,12,1.05,7.85,-4.97,-0.07,0.00,-0.03,G
239,228,1,1,13,1.16,7.95,-4.70,-0.05,-0.03,0.02,G
240,229,1,0,14,1.32,7.92,-4.76,-0.02,-0.03,0.00,G
238,228,1,1,13,1.18,7.87,-4.76,-0.01,-0.02,-0.01,G
239,229,2,2,14,1.20,7.93,-4.72,-0.01,-0.01,-0.00,G
239,228,1,1,14,1.15,7.93,-4.61,-0.02,-0.04,-0.03,G
239,227,1,0,13,1.26,8.08,-4.60,0.01,-0.01,0.02,G
239,228,1,1,13,1.28,7.84,-4.72,0.00,0.03,0.00,G
239,228,1,0,14,1.33,7.92,-4.81,-0.01,-0.01,0.01,G
240,227,2,1,13,1.45,7.87,-4.79,-0.01,0.01,0.02,G
239,227,0,0,13,1.34,7.86,-4.84,-0.08,-0.05,-0.04,G
239,227,1,2,13,1.25,7.81,-4.81,0.01,-0.02,0.03,G
239,227,2,2,13,1.40,7.74,-5.03,0.04,-0.05,0.00,G
239,228,1,0,13,1.21,7.74,-4.82,-0.00,-0.09,-0.04,G
239,229,2,1,12,1.38,7.73,-5.03,-0.12,-0.01,0.02,G
239,228,1,1,15,1.14,7.91,-4.70,-0.06,-0.00,0.02,G
239,228,1,2,13,1.29,7.98,-4.76,-0.05,-0.03,-0.00,G
239,226,1,0,13,1.21,7.91,-4.65,-0.05,0.01,-0.01,G
239,229,1,1,15,1.22,7.90,-4.80,0.00,-0.01,0.00,G
239,228,0,1,12,1.30,7.70,-4.92,-0.11,0.02,0.00,G
239,229,0,0,14,1.25,8.15,-4.60,-0.08,-0.07,0.07,G
239,228,1,0,14,1.51,8.16,-4.52,-0.10,-0.01,-0.01,G
239,228,0,1,14,1.14,8.16,-4.26,-0.09,0.01,0.02,G
239,228,1,2,13,1.10,8.52,-4.17,-0.04,-0.08,0.07,G
240,227,1,0,13,1.55,8.29,-4.07,-0.10,-0.33,0.06,G
239,228,0,1,13,1.19,8.32,-4.17,-0.05,-0.28,0.03,G
239,228,1,1,14,0.97,8.46,-4.19,-0.03,-0.11,0.01,G
238,228,1,1,14,1.15,8.34,-4.14,0.01,0.22,0.03,G
239,227,2,1,13,1.60,8.30,-4.01,-0.05,0.20,-0.13,G
239,227,0,1,14,1.10,8.47,-4.06,-0.00,0.07,-0.02,G
239,229,1,2,13,1.80,8.34,-3.98,-0.03,-0.01,-0.02,G
238,228,1,1,13,1.50,8.40,-3.95,-0.03,-0.01,-0.00,G
239,228,1,1,13,1.59,8.42,-3.95,0.03,0.09,0.02,G
238,228,2,1,13,1.70,8.25,-3.94,0.00,-0.12,-0.02,G
239,229,1,2,15,1.57,8.33,-4.16,0.00,-0.00,0.04,G
239,228,3,2,15,1.25,8.32,-4.04,-0.04,-0.20,0.04,G
238,228,0,1,14,1.65,8.28,-4.22,-0.01,-0.12,0.02,G
238,228,2,1,14,1.42,8.26,-4.12,0.01,-0.18,0.03,G
238,228,0,1,14,1.75,8.21,-4.31,0.04,0.06,0.04,G
238,228,2,2,14,1.60,8.20,-4.35,-0.01,-0.04,0.01,G
239,228,2,2,15,1.67,8.09,-4.46,-0.03,0.00,-0.02,G
239,228,1,0,13,1.62,8.11,-4.36,-0.02,0.02,0.01,G
210,235,5,3,19,9.70,-0.54,-2.12,-0.01,-0.05,-0.01,H
210,236,6,2,19,9.56,-0.54,-2.11,-0.04,0.00,0.01,H
211,235,4,2,20,9.67,-0.57,-2.15,-0.00,-0.02,-0.01,H
210,234,5,2,19,9.52,-0.50,-2.15,-0.03,-0.02,-0.01,H
210,235,5,2,19,9.74,-0.54,-2.08,-0.02,-0.03,0.02,H
211,235,6,3,21,9.57,-0.45,-2.09,0.02,0.04,-0.04,H
209,234,5,2,19,9.75,-0.51,-2.06,-0.00,-0.01,-0.02,H
209,235,5,3,20,9.92,-0.63,-2.12,0.05,0.01,-0.02,H
209,236,4,2,19,9.90,-0.70,-1.96,-0.06,-0.04,0.02,H
209,236,5,1,19,9.66,-0.46,-1.88,-0.05,-0.07,0.01,H
210,236,6,3,20,9.69,-0.47,-2.02,-0.01,-0.01,0.01,H
209,235,6,2,20,9.67,-0.51,-1.86,-0.05,-0.05,0.02,H
210,235,4,1,20,9.79,-0.62,-1.81,-0.03,0.03,0.01,H
208,236,6,2,19,9.76,-0.61,-1.81,-0.06,0.08,0.03,H
210,235,6,3,19,9.94,-0.51,-1.59,-0.01,-0.10,-0.02,H
218,235,6,1,20,9.87,-0.29,-1.41,0.05,-0.20,-0.10,H
204,235,7,1,18,9.86,-0.51,-1.87,0.03,0.12,-0.05,H
192,235,4,2,17,9.72,-0.42,-1.69,0.03,0.17,0.02,H
190,235,5,3,17,9.85,-0.26,-1.57,-0.05,0.09,0.03,H
193,235,4,2,16,10.01,-0.34,-1.58,-0.02,-0.02,-0.00,H
195,235,6,2,18,9.95,-0.36,-1.52,-0.00,-0.01,0.01,H
194,235,5,2,17,9.72,-0.33,-1.59,0.01,-0.05,0.03,H
195,235,5,2,17,9.82,-0.41,-1.59,-0.02,-0.01,-0.00,H
196,235,5,1,17,9.73,-0.59,-1.75,0.00,-0.10,0.11,H
196,234,4,0,17,9.92,-0.67,-1.77,-0.04,-0.02,0.05,H
197,236,4,1,17,9.80,-0.68,-1.63,-0.01,-0.05,0.02,H
197,235,5,1,18,9.78,-0.64,-1.81,-0.01,-0.04,-0.00,H
196,235,4,1,16,9.75,-0.65,-1.75,-0.01,0.01,0.00,H
196,236,5,1,17,9.89,-0.69,-1.72,-0.02,-0.00,0.02,H
197,236,4,2,17,9.83,-0.69,-1.85,-0.07,-0.04,0.00,H
196,235,5,3,19,9.86,-0.65,-1.80,-0.03,-0.05,0.01,H
197,235,5,1,17,9.77,-0.59,-1.75,-0.01,-0.03,0.02,H
198,236,5,3,17,9.76,-0.69,-1.88,0.03,-0.02,0.01,H
199,236,6,1,17,9.72,-0.69,-1.85,-0.05,0.02,0.02,H
197,235,5,1,18,9.68,-0.67,-1.81,-0.02,-0.04,0.01,H
197,235,4,1,17,9.71,-0.68,-1.76,-0.00,-0.02,0.01,H
198,235,5,2,18,9.67,-0.66,-1.75,-0.06,-0.04,-0.01,H
199,234,4,1,17,9.78,-0.78,-1.95,-0.12,-0.15,0.02,H
198,235,4,1,18,9.70,-0.76,-1.86,0.01,-0.00,0.00,H
198,236,6,3,18,9.65,-0.78,-1.81,0.04,0.01,0.01,H
198,236,4,3,18,9.50,-0.77,-1.75,0.03,0.02,-0.01,H
199,235,5,2,18,9.79,-0.81,-1.53,0.05,0.06,0.02,H
199,235,6,1,18,9.92,-1.06,-1.58,0.03,-0.07,0.04,H
198,236,6,1,18,9.65,-1.15,-1.63,0.07,0.05,0.02,H
199,236,4,2,18,9.63,-0.96,-1.42,-0.10,-0.07,0.02,H
199,235,5,1,17,9.75,-1.10,-1.40,0.03,-0.04,0.03,H
199,235,4,1,18,9.78,-1.18,-1.45,-0.05,-0.05,0.03,H
199,234,5,0,18,9.85,-1.07,-1.25,0.03,0.08,-0.05,H
200,235,5,2,18,9.82,-1.20,-1.52,-0.01,-0.01,0.05,H
200,234,4,2,18,9.87,-1.23,-1.27,0.07,0.10,-0.14,H
200,235,4,1,18,9.54,-0.97,-0.77,0.16,0.40,0.09,H
201,235,4,2,19,10.15,-1.02,-0.79,-0.10,-0.11,-0.00,H
200,235,5,1,19,9.92,-1.20,-1.34,-0.09,-0.31,0.00,H
202,235,6,1,18,9.38,-0.90,-1.44,0.01,-0.02,0.03,H
200,236,5,2,19,9.76,-0.89,-1.83,-0.03,0.00,-0.02,H
202,236,5,2,17,9.68,-1.06,-1.91,-0.02,-0.06,-0.00,H
200,235,6,1,16,9.76,-1.10,-1.83,-0.04,-0.01,0.01,H
202,235,5,1,18,9.69,-1.01,-1.84,-0.04,0.03,0.02,H
202,234,5,2,19,9.68,-1.02,-1.88,-0.03,-0.05,0.01,H
202,236,4,3,17,9.93,-1.02,-1.78,-0.00,0.03,-0.02,H
201,236,6,2,18,9.62,-0.98,-1.80,-0.02,-0.04,0.01,H
202,235,5,1,18,9.78,-1.09,-1.81,-0.02,-0.01,0.00,H
203,235,5,0,18,9.78,-1.06,-1.72,0.02,0.05,0.02,H
203,235,4,2,18,9.81,-1.16,-1.67,0.01,-0.01,0.02,H
202,234,5,3,19,9.83,-1.18,-1.74,-0.01,0.09,-0.02,H
203,235,6,2,19,9.75,-1.21,-1.76,-0.01,0.03,-0.01,H
203,236,5,2,18,9.77,-1.16,-1.75,-0.04,-0.03,0.01,H
203,235,6,1,18,9.84,-1.08,-1.80,-0.04,-0.04,0.01,H
204,235,5,3,19,9.81,-1.09,-1.83,-0.00,-0.07,0.00,H
203,236,5,2,19,9.67,-1.10,-1.73,-0.01,-0.04,-0.01,H
203,236,5,2,19,9.74,-1.10,-1.79,-0.03,-0.02,0.00,H
202,235,5,1,18,9.83,-1.09,-1.84,-0.01,-0.05,0.01,H
202,235,4,1,18,9.67,-1.16,-1.77,0.01,-0.02,-0.01,H
204,235,5,3,19,9.62,-1.16,-1.84,-0.05,-0.03,0.02,H
203,234,4,2,18,9.84,-1.14,-1.77,-0.04,-0.05,-0.02,H
204,235,5,2,19,9.55,-1.15,-1.87,0.00,-0.02,-0.02,H
174,122,2,1,28,-0.57,9.51,-1.33,0.01,0.06,-0.03,I
178,121,0,0,29,-0.55,9.50,-1.30,-0.03,-0.01,0.03,I
173,121,1,2,29,-0.54,9.45,-1.39,0.02,-0.03,0.00,I
174,119,1,2,30,-0.45,9.57,-1.36,-0.03,-0.05,0.01,I
174,122,2,1,28,-0.55,9.46,-1.49,-0.04,-0.03,0.01,I
175,121,1,2,29,-0.46,9.45,-1.47,-0.08,0.01,0.03,I
175,121,0,1,28,-0.37,9.63,-1.24,-0.04,-0.06,0.01,I
175,122,2,1,28,-0.52,9.58,-1.32,0.01,-0.02,-0.01,I
175,123,1,2,28,-0.37,9.51,-1.30,-0.01,-0.04,0.01,I
175,122,1,0,28,-0.44,9.53,-1.35,-0.02,-0.01,-0.01,I
176,122,2,1,30,-0.37,9.52,-1.37,-0.01,-0.01,0.01,I
174,123,0,2,28,-0.64,9.46,-1.41,-0.03,-0.03,0.02,I
174,122,1,1,28,-0.34,9.31,-1.41,-0.06,0.02,0.03,I
175,122,1,1,29,-0.41,9.42,-1.30,0.01,0.03,0.01,I
175,126,1,2,29,-0.36,9.39,-1.44,-0.04,-0.03,0.02,I
176,125,1,3,29,-0.41,9.57,-1.32,0.00,-0.01,-0.02,I
175,123,0,2,29,-0.57,9.47,-1.32,-0.05,0.01,0.01,I
170,123,2,1,28,-0.53,9.63,-1.39,-0.01,-0.02,0.01,I
176,122,0,1,28,-0.41,9.53,-1.30,-0.02,-0.05,0.04,I
176,122,1,0,28,-0.30,9.50,-1.20,0.02,0.06,0.02,I
176,123,1,1,29,-0.13,9.48,-1.28,0.05,-0.04,0.03,I
176,124,1,1,27,-0.28,9.53,-1.24,-0.01,-0.13,-0.00,I
175,122,1,0,29,-0.35,9.58,-1.44,-0.05,-0.12,0.03,I
175,125,1,1,27,-0.01,9.61,-1.13,0.06,-0.07,0.03,I
176,126,1,2,28,-0.07,9.51,-1.58,-0.01,-0.03,0.01,I
176,124,2,2,29,-0.34,9.49,-1.33,0.00,-0.01,-0.00,I
176,123,2,0,28,-0.28,9.44,-1.52,0.01,0.09,0.01,I
176,122,1,2,29,-0.01,9.50,-1.57,-0.03,0.15,0.01,I
176,124,0,1,28,-0.10,9.41,-1.43,0.02,0.13,-0.07,I
176,124,0,1,27,-0.09,9.46,-1.41,0.04,0.19,-0.00,I
177,124,1,0,28,-0.15,9.47,-1.32,0.02,0.06,-0.01,I
176,126,1,2,28,-0.19,9.53,-1.47,0.01,0.04,-0.00,I
177,125,1,2,27,-0.28,9.46,-1.48,-0.02,-0.05,0.01,I
178,125,2,1,28,-0.16,9.53,-1.51,0.00,-0.04,-0.02,I
178,125,2,1,28,-0.10,9.32,-1.59,0.01,-0.03,0.01,I
179,125,1,0,29,-0.06,9.49,-1.51,-0.02,0.02,0.01,I
173,125,0,2,29,-0.20,9.49,-1.52,-0.03,-0.05,-0.01,I
179,123,1,2,29,-0.34,9.52,-1.49,0.01,-0.05,0.01,I
177,125,1,1,29,-0.09,9.69,-1.47,-0.06,-0.01,0.01,I
179,123,1,0,28,-0.09,9.51,-1.35,0.01,0.01,0.00,I
179,125,0,1,28,-0.10,9.47,-1.79,0.03,-0.02,-0.00,I
178,125,1,2,29,-0.03,9.40,-1.55,-0.02,-0.00,-0.01,I
178,124,2,2,29,0.03,9.45,-1.55,0.02,0.02,-0.00,I
179,125,1,2,29,-0.06,9.48,-1.68,-0.04,-0.02,0.01,I
177,125,1,1,29,-0.23,9.47,-1.63,0.00,-0.04,-0.01,I
178,125,1,1,28,-0.33,9.52,-1.64,-0.02,0.03,-0.00,I
180,126,2,1,30,-0.28,9.42,-1.71,-0.06,-0.07,0.02,I
178,125,0,1,27,-0.14,9.45,-1.67,-0.00,-0.00,-0.01,I
179,127,1,2,29,-0.09,9.33,-1.76,-0.03,-0.03,-0.00,I
180,126,1,0,29,0.04,9.36,-1.71,-0.03,-0.03,0.01,I
179,126,1,0,28,-0.08,9.52,-1.58,-0.01,-0.02,0.01,I
180,127,2,2,28,-0.04,9.47,-1.56,-0.04,-0.02,0.04,I
180,126,1,2,27,-0.18,9.42,-1.76,0.00,-0.01,-0.01,I
180,124,1,2,28,-0.25,9.43,-1.63,0.01,-0.01,-0.02,I
180,126,2,2,30,-0.25,9.31,-1.69,-0.02,0.04,-0.00,I
180,126,1,3,29,-0.02,9.27,-1.82,-0.03,-0.02,0.03,I
180,127,1,2,28,-0.02,9.16,-1.71,-0.03,0.05,0.03,I
178,125,1,2,29,-0.03,9.32,-1.83,-0.07,-0.00,0.01,I
179,126,1,0,29,0.06,9.35,-1.59,-0.10,-0.05,0.00,I
180,126,0,2,29,-0.27,9.56,-1.53,-0.01,-0.02,0.00,I
179,126,1,3,29,-0.08,9.45,-1.68,0.00,-0.02,0.00,I
181,128,1,0,28,-0.13,9.47,-1.56,-0.03,-0.03,0.02,I
179,127,3,1,28,-0.16,9.58,-1.54,-0.05,-0.04,0.01,I
180,127,1,1,29,-0.25,9.50,-1.62,-0.03,-0.03,0.01,I
180,126,1,3,29,-0.20,9.58,-1.63,-0.02,-0.06,-0.02,I
178,126,1,2,28,-0.15,9.40,-1.50,-0.01,-0.04,-0.02,I
181,127,1,1,29,-0.11,9.52,-1.63,-0.01,-0.05,-0.00,I
180,126,1,1,28,-0.09,9.46,-1.47,-0.02,-0.05,0.00,I
183,128,2,1,28,-0.21,9.55,-1.51,0.01,-0.02,-0.01,I
180,127,1,1,28,-0.16,9.50,-1.52,0.00,-0.01,-0.01,I
182,125,2,1,28,-0.18,9.41,-1.52,-0.01,-0.02,-0.02,I
181,127,1,1,29,-0.29,9.47,-1.62,-0.01,-0.00,-0.00,I
180,126,2,3,28,-0.32,9.41,-1.49,-0.03,0.01,0.01,I
182,129,1,2,29,-0.18,9.47,-1.68,-0.06,-0.00,0.00,I
185,127,2,2,29,-0.38,9.44,-1.54,-0.04,-0.01,0.04,I
180,127,0,2,29,-0.68,9.74,-1.22,0.03,0.02,-0.01,I
180,128,0,3,28,-0.28,9.70,-1.42,-0.00,-0.18,0.10,I
180,127,0,2,28,-0.17,9.70,-1.33,-0.01,-0.14,0.02,I
180,127,3,1,28,-0.20,9.54,-1.23,0.02,0.03,-0.01,I
180,122,1,2,29,-0.10,9.49,-1.37,0.04,0.05,-0.01,I
181,127,1,2,29,-0.26,9.43,-1.64,-0.03,0.11,-0.02,I
180,128,1,2,28,0.32,9.52,-1.74,0.03,0.32,0.06,I
181,127,2,2,28,0.22,9.40,-1.65,-0.04,0.04,-0.05,I
181,128,1,1,28,0.03,9.50,-1.53,0.01,0.00,-0.02,I
180,127,1,2,28,0.40,9.42,-1.75,-0.01,0.04,-0.03,I
180,129,0,2,28,-0.00,9.46,-1.58,-0.05,-0.01,0.01,I
180,127,0,1,28,0.03,9.56,-1.67,0.01,-0.06,-0.05,I
180,126,2,1,27,-0.33,9.39,-1.81,-0.02,-0.02,-0.01,I
180,127,2,2,28,-0.16,9.46,-1.62,-0.03,-0.03,-0.02,I
181,127,1,2,29,-0.11,9.48,-1.69,-0.02,-0.02,0.01,I
181,127,2,1,28,-0.13,9.41,-1.66,-0.02,-0.00,0.01,I
181,128,3,2,29,-0.03,9.41,-1.65,-0.01,-0.05,0.01,I
181,127,1,2,29,-0.06,9.45,-1.73,-0.05,-0.03,-0.00,I
182,132,1,3,29,3.14,9.20,3.54,-0.06,-0.10,-0.01,J
185,133,1,1,28,3.01,9.16,3.36,-0.06,-0.08,0.04,J
184,133,2,1,28,3.14,9.19,3.59,-0.04,-0.04,0.04,J
185,136,0,1,28,3.25,9.05,3.46,-0.05,-0.08,0.01,J
185,130,1,2,29,3.33,9.10,3.60,-0.03,-0.03,0.02,J
185,133,1,0,29,3.26,9.12,3.62,-0.01,-0.03,0.00,J
185,132,1,2,29,3.27,9.08,3.48,0.01,-0.03,0.02,J
185,131,1,1,29,3.44,9.05,3.44,-0.02,0.06,0.03,J
184,132,1,1,27,3.21,9.18,3.74,-0.04,0.00,0.02,J
184,130,1,2,29,3.41,9.06,3.51,-0.01,-0.05,0.01,J
185,132,0,1,29,3.41,9.15,3.65,-0.05,-0.08,0.00,J
184,132,0,1,28,3.09,9.05,3.45,-0.02,-0.08,0.03,J
184,131,2,1,28,3.29,9.12,3.48,-0.02,-0.01,0.03,J
185,132,1,0,28,3.41,9.04,3.55,-0.01,-0.02,0.00,J
184,132,1,1,29,3.38,8.94,3.45,-0.02,-0.03,0.01,J
184,133,0,2,30,3.51,9.07,3.51,0.01,-0.03,0.02,J
186,131,2,1,30,3.36,9.04,3.51,-0.02,0.01,-0.01,J
184,132,1,1,28,3.55,8.96,3.53,-0.03,-0.10,0.02,J
184,133,1,2,29,3.50,9.03,3.61,-0.04,0.01,-0.01,J
185,132,1,2,29,3.44,9.03,3.60,0.02,-0.01,-0.01,J
184,130,1,1,29,3.50,9.02,3.52,-0.02,0.02,-0.00,J
185,134,1,2,30,3.43,9.05,3.61,0.01,0.07,-0.00,J
183,131,2,3,30,3.35,9.05,3.62,-0.01,0.03,-0.01,J
185,132,1,2,29,3.43,8.98,3.55,-0.04,0.01,-0.00,J
185,134,0,1,29,3.58,9.06,3.59,-0.03,0.00,0.01,J
185,133,1,2,29,3.47,9.07,3.68,-0.02,0.01,-0.02,J
185,133,2,3,30,3.31,9.00,3.62,0.01,-0.00,-0.01,J
184,133,1,2,29,3.43,9.10,3.67,0.01,-0.01,0.01,J
182,132,1,2,29,3.52,8.95,3.51,-0.02,-0.01,0.00,J
184,132,2,3,27,3.41,9.11,3.51,-0.02,0.01,0.01,J
184,133,2,1,29,3.56,9.08,3.63,-0.03,0.00,0.02,J
185,133,1,1,29,3.52,8.95,3.55,-0.02,-0.05,0.02,J
181,133,1,1,28,3.54,9.00,3.57,-0.02,-0.03,0.01,J
185,133,3,2,30,3.35,9.08,3.64,-0.02,-0.01,-0.01,J
185,132,1,1,29,3.42,9.06,3.65,-0.03,-0.05,-0.00,J
186,132,1,0,29,3.36,9.10,3.61,-0.01,-0.02,-0.02,J
185,132,1,2,29,3.29,9.00,3.59,0.00,-0.01,-0.00,J
186,132,1,1,29,3.43,9.10,3.63,-0.00,0.21,-0.05,J
184,133,0,1,28,3.09,9.16,3.63,-0.01,-0.04,-0.03,J
186,135,2,1,29,3.10,9.04,3.60,-0.03,-0.00,-0.00,J
185,132,0,2,29,3.54,9.09,3.60,-0.03,0.08,-0.04,J
188,133,2,1,28,3.17,9.05,3.57,0.01,0.20,-0.01,J
185,133,1,2,29,2.82,9.11,3.73,-0.01,0.07,-0.04,J
186,135,1,1,29,3.08,9.11,3.68,-0.02,-0.06,0.01,J
186,133,1,2,29,3.03,9.13,3.76,-0.03,0.03,0.00,J
185,135,0,1,28,2.81,9.10,3.75,0.02,0.32,0.02,J
186,133,1,1,30,3.39,9.06,3.71,0.05,0.03,0.05,J
186,133,0,1,29,3.03,9.09,3.78,0.01,0.01,0.02,J
185,133,1,3,29,3.13,9.03,3.76,-0.04,0.00,0.02,J
186,132,1,1,29,3.15,9.08,3.90,-0.03,-0.09,0.01,J
186,133,0,3,29,3.41,8.98,3.89,-0.04,-0.17,0.01,J
186,133,1,1,28,3.39,9.17,3.92,0.01,0.16,-0.01,J
186,134,1,1,28,3.36,8.98,3.67,-0.02,-0.12,0.02,J
186,134,1,1,29,3.30,8.88,3.50,-0.08,-0.13,0.05,J
186,133,2,1,28,3.43,9.03,3.71,-0.07,0.01,0.05,J
185,134,0,1,29,3.86,8.88,3.80,0.06,0.11,-0.01,J
187,133,1,0,28,3.43,8.83,3.68,-0.08,-0.05,0.05,J
186,133,2,2,29,3.60,8.93,3.96,-0.02,-0.02,0.02,J
186,130,1,1,29,3.68,8.88,3.88,-0.04,-0.12,0.01,J
186,134,1,1,29,3.20,8.88,3.91,-0.02,0.07,0.01,J
187,134,1,1,28,3.41,8.89,3.94,-0.01,0.05,0.04,J
186,133,1,2,29,3.80,8.78,3.85,-0.02,-0.06,-0.02,J
186,133,0,1,28,3.53,8.90,4.06,-0.04,-0.07,0.02,J
186,132,1,2,29,3.60,8.88,4.05,-0.07,-0.09,0.01,J
186,135,1,1,28,3.54,8.85,4.04,-0.10,-0.25,-0.02,J
185,135,1,1,29,3.76,8.79,3.98,-0.02,0.07,0.02,J
185,133,1,3,29,3.68,8.85,4.07,-0.01,-0.12,0.04,J
187,133,2,2,30,3.38,8.88,3.93,-0.04,0.17,-0.09,J
188,132,1,2,29,3.45,8.84,4.03,-0.01,-0.00,0.01,J
187,132,1,2,29,3.42,8.85,4.03,-0.03,0.01,-0.04,J
187,134,1,1,30,3.65,8.83,3.99,-0.04,-0.01,0.00,J
187,134,0,2,29,3.74,8.83,4.02,-0.01,0.10,0.00,J
189,135,1,1,29,3.83,8.73,4.12,-0.01,-0.05,0.02,J
187,133,0,1,28,3.48,8.85,4.15,-0.01,-0.03,-0.02,J
187,133,1,1,28,3.76,8.87,4.12,-0.02,0.07,0.01,J
189,133,1,2,28,3.51,8.89,4.13,0.01,0.03,-0.01,J
188,134,1,1,29,3.31,8.84,4.02,-0.01,-0.02,-0.00,J
188,133,3,2,29,3.52,8.91,4.42,-0.06,-0.07,-0.02,J
188,134,0,1,28,3.45,8.77,4.02,-0.04,-0.03,0.01,J
188,136,2,2,28,3.60,8.88,4.15,-0.04,-0.03,-0.03,J
183,135,1,2,29,3.39,8.97,4.20,-0.01,-0.02,-0.01,J
187,134,1,0,28,3.50,8.83,4.04,0.00,-0.04,-0.01,J
188,135,2,2,29,3.37,8.93,4.05,-0.00,-0.01,0.00,J
188,128,1,2,29,3.37,8.93,3.98,-0.05,-0.05,-0.02,J
188,134,2,2,30,3.47,8.88,3.84,-0.01,-0.08,0.03,J
187,134,2,2,29,3.47,8.90,4.03,-0.01,0.02,0.02,J
188,134,1,1,28,3.62,8.83,3.96,-0.03,-0.09,-0.03,J
189,134,2,2,30,3.57,8.93,4.04,-0.02,0.06,0.02,J
184,134,0,1,30,3.52,8.88,3.98,-0.01,0.00,0.01,J
188,134,1,2,29,3.59,8.88,4.02,-0.01,0.03,0.01,J
187,134,2,1,29,3.58,8.86,3.99,-0.02,0.04,0.01,J
188,132,0,1,28,3.51,8.89,4.02,-0.02,-0.04,-0.01,J
187,135,0,2,29,3.56,8.92,4.01,-0.04,-0.02,0.01,J
231,237,4,1,15,6.34,5.87,-4.18,0.01,-0.08,0.05,K
231,238,5,1,17,6.43,5.66,-4.23,-0.01,-0.03,0.01,K
232,238,4,0,16,6.50,5.74,-4.24,-0.03,0.01,0.04,K
230,238,4,3,16,6.91,5.58,-4.17,-0.01,0.01,0.04,K
232,239,5,3,16,6.82,5.69,-4.11,0.03,-0.05,0.00,K
231,239,5,1,16,6.44,5.84,-4.10,-0.08,-0.10,-0.09,K
231,236,5,1,17,6.28,6.17,-3.85,0.03,0.04,-0.04,K
231,238,4,2,17,6.72,5.60,-4.19,0.03,-0.08,0.03,K
231,238,4,2,17,6.37,5.82,-3.96,-0.00,0.00,-0.03,K
232,241,6,3,17,6.38,5.86,-4.16,-0.04,-0.03,0.00,K
231,238,4,0,16,6.53,6.00,-3.98,-0.00,-0.05,-0.01,K
231,238,4,1,16,6.39,5.76,-4.16,-0.04,0.01,0.04,K
231,237,4,2,16,6.39,5.81,-3.89,-0.06,-0.02,0.01,K
231,239,4,1,16,6.42,5.84,-4.04,-0.03,0.01,0.02,K
231,238,3,2,17,6.63,5.82,-3.77,-0.04,-0.03,0.05,K
235,239,5,3,17,6.63,5.74,-3.83,0.00,-0.06,0.02,K
229,238,5,3,17,6.72,5.65,-4.02,0.00,-0.05,-0.01,K
232,239,4,1,17,6.64,5.73,-4.03,-0.03,-0.02,0.00,K
232,239,5,2,16,6.77,5.65,-3.96,-0.02,-0.02,0.02,K
231,239,4,1,16,6.56,5.68,-3.97,0.01,-0.00,0.01,K
231,236,4,1,16,6.73,5.57,-4.09,0.00,-0.01,0.00,K
232,238,4,1,17,6.78,5.56,-3.99,0.03,0.01,0.00,K
232,240,4,0,16,6.67,5.55,-4.06,-0.02,-0.01,0.01,K
230,238,5,1,16,6.84,5.60,-4.04,-0.02,-0.01,-0.00,K
233,238,4,1,15,6.76,5.64,-4.03,-0.05,-0.03,-0.00,K
232,239,5,3,18,6.89,5.61,-4.06,-0.01,-0.05,0.01,K
233,238,5,0,16,6.63,5.63,-4.04,-0.02,-0.06,0.01,K
232,237,4,1,16,6.53,5.62,-3.99,-0.02,0.01,0.02,K
231,238,5,1,17,6.48,5.59,-4.06,0.01,0.06,0.02,K
233,239,5,1,16,6.83,5.55,-3.96,-0.01,-0.03,-0.00,K
233,236,5,2,16,6.61,5.61,-4.02,-0.01,-0.06,0.01,K
233,238,5,2,16,6.45,5.46,-4.06,0.00,-0.06,0.00,K
233,239,6,2,17,6.73,5.50,-4.04,-0.02,-0.03,-0.01,K
232,238,3,2,17,6.71,5.52,-4.06,-0.03,-0.05,0.02,K
232,238,5,2,15,6.77,5.54,-3.98,0.01,-0.04,0.06,K
232,238,5,0,16,6.99,5.39,-4.10,-0.01,-0.06,0.03,K
232,238,5,0,16,6.72,5.37,-4.06,-0.07,-0.06,0.01,K
231,239,4,1,16,6.64,5.64,-3.89,-0.06,-0.07,0.01,K
233,238,4,2,18,6.73,5.43,-4.07,-0.06,-0.09,0.02,K
227,238,5,0,16,6.78,5.58,-3.89,-0.01,-0.05,0.02,K
231,237,4,1,16,6.71,5.50,-3.98,-0.02,-0.04,-0.02,K
232,239,5,2,17,6.79,5.44,-4.00,-0.00,-0.02,0.00,K
232,238,4,0,15,6.61,5.56,-4.00,-0.02,-0.04,-0.03,K
232,238,4,2,17,6.73,5.29,-4.23,0.05,0.00,0.03,K
232,239,5,3,18,6.73,5.60,-4.00,-0.02,-0.01,0.05,K
232,239,4,3,16,7.10,5.61,-3.95,-0.04,-0.05,-0.01,K
232,238,5,2,17,6.78,5.61,-4.05,-0.02,-0.05,-0.02,K
232,237,5,2,17,6.88,5.52,-4.12,-0.01,-0.04,0.01,K
233,241,5,1,17,6.61,5.50,-4.00,-0.00,-0.05,-0.01,K
232,238,4,0,17,6.74,5.52,-4.05,-0.02,-0.00,-0.01,K
233,238,5,1,18,6.77,5.48,-4.04,-0.01,-0.00,0.01,K
232,239,5,2,16,6.81,5.43,-4.19,-0.01,0.01,-0.01,K
231,238,5,1,16,6.84,5.43,-4.15,-0.01,-0.04,-0.00,K
232,238,6,3,18,6.71,5.56,-4.05,-0.03,0.00,0.02,K
231,238,4,2,16,6.63,5.47,-4.13,-0.02,-0.03,-0.02,K
233,239,5,3,18,6.75,5.39,-4.23,-0.06,-0.06,0.02,K
235,238,4,1,16,6.64,5.50,-4.07,-0.02,-0.00,-0.05,K
233,237,4,0,16,6.58,5.53,-4.14,0.00,0.00,-0.01,K
229,238,4,1,17,6.74,5.51,-4.14,-0.01,-0.01,-0.03,K
231,237,4,3,18,6.38,5.56,-4.11,-0.13,-0.11,-0.02,K
232,238,5,0,17,6.70,5.98,-3.85,-0.25,-0.28,-0.01,K
233,237,5,3,16,6.44,6.01,-4.08,-0.06,-0.02,-0.05,K
232,237,5,1,18,6.42,6.08,-4.01,-0.03,0.03,-0.01,K
231,238,4,1,16,6.00,6.34,-3.75,0.08,0.09,-0.03,K
233,244,4,1,17,6.30,6.05,-3.86,0.06,0.09,-0.01,K
232,240,4,2,18,6.21,6.09,-3.87,0.04,0.08,-0.01,K
232,238,4,2,17,6.75,5.85,-3.73,0.06,0.17,0.04,K
230,238,4,2,17,6.70,5.82,-3.64,0.07,0.13,0.03,K
233,238,4,0,17,6.90,5.66,-3.73,0.01,0.04,0.01,K
233,239,5,2,17,6.93,5.72,-3.62,0.01,0.13,-0.01,K
231,238,4,1,16,7.22,5.56,-3.57,-0.04,-0.03,0.02,K
232,240,5,1,17,7.15,5.65,-3.39,-0.00,-0.07,-0.00,K
231,238,5,2,18,7.00,5.68,-3.48,0.13,0.26,-0.03,K
234,242,4,2,17,7.22,5.63,-3.28,0.01,0.04,0.01,K
232,238,5,1,17,7.02,5.66,-3.35,0.00,-0.01,-0.02,K
233,237,6,1,18,7.18,5.64,-3.37,-0.01,-0.08,0.01,K
234,238,5,1,17,7.08,5.71,-3.30,-0.04,-0.01,0.00,K
232,238,5,4,18,7.06,5.66,-3.35,0.00,-0.03,0.01,K
232,238,5,2,17,7.07,5.67,-3.44,-0.02,-0.04,0.01,K
232,237,4,1,17,6.95,5.65,-3.37,-0.03,-0.06,-0.02,K
232,237,5,2,17,6.95,5.77,-3.39,-0.03,-0.02,-0.01,K
231,237,4,1,17,7.13,5.74,-3.31,-0.02,-0.02,0.01,K
233,238,4,1,17,7.05,5.62,-3.44,-0.02,0.02,0.00,K
232,237,4,1,17,7.21,5.53,-3.54,0.02,0.00,0.01,K
232,237,5,3,18,7.04,5.57,-3.38,-0.02,-0.04,0.01,K
232,238,5,3,19,7.03,5.68,-3.44,-0.01,-0.03,0.00,K
232,239,5,1,16,7.08,5.74,-3.40,-0.03,-0.01,0.01,K
242,233,2,2,20,-0.91,9.07,-3.08,-0.05,-0.07,0.01,L
243,235,2,1,20,-0.97,8.95,-2.70,0.10,0.00,-0.03,L
242,235,1,2,19,-0.64,8.86,-2.96,0.02,0.04,0.02,L
241,233,1,2,19,-1.05,8.65,-3.00,0.04,-0.00,0.04,L
238,232,1,2,21,-0.94,8.70,-3.40,-0.07,-0.03,-0.03,L
242,232,1,2,19,-0.85,8.63,-3.22,-0.04,-0.04,0.01,L
242,232,1,2,20,-1.01,8.78,-3.20,-0.02,-0.04,0.02,L
242,233,2,2,20,-0.92,8.85,-3.03,-0.11,-0.07,-0.02,L
241,234,2,1,20,-1.19,9.17,-2.73,-0.09,0.05,-0.05,L
243,233,1,1,19,-1.09,8.99,-2.37,-0.12,0.16,0.09,L
242,233,1,1,18,-1.04,8.71,-3.00,0.13,-0.05,-0.10,L
242,233,2,1,18,-0.79,9.26,-2.66,0.04,0.01,0.03,L
243,232,2,2,19,-1.20,8.70,-2.89,0.04,-0.03,0.01,L
241,232,0,2,18,-0.83,8.87,-3.04,-0.03,-0.00,-0.05,L
242,233,1,1,18,-1.09,8.92,-2.96,-0.02,-0.04,-0.01,L
245,233,1,2,19,-0.96,8.93,-3.09,-0.17,0.00,-0.04,L
243,239,1,1,17,-1.27,8.95,-2.80,-0.02,-0.02,-0.08,L
242,234,1,3,19,-0.98,8.90,-2.92,-0.05,-0.05,0.02,L
242,235,2,2,21,-1.22,9.05,-3.01,-0.11,0.02,-0.04,L
241,233,1,0,19,-1.16,8.89,-2.71,0.04,-0.06,0.00,L
242,234,1,2,18,-0.90,8.81,-2.87,0.02,0.00,-0.02,L
241,240,1,1,19,-1.10,8.98,-2.85,0.02,-0.02,0.01,L
242,232,1,1,19,-1.07,8.74,-2.97,-0.01,0.02,0.01,L
241,233,0,1,18,-1.17,8.92,-2.90,-0.06,-0.06,0.05,L
243,234,2,1,18,-1.02,8.89,-3.00,-0.02,-0.03,-0.04,L
242,234,0,1,18,-1.10,8.94,-2.94,0.02,-0.02,0.02,L
242,235,2,3,19,-1.07,9.03,-3.22,0.09,-0.11,0.03,L
242,232,1,0,19,-0.59,8.82,-2.90,-0.05,0.03,0.07,L
241,232,1,2,19,-1.01,8.79,-3.18,-0.00,-0.05,-0.02,L
244,234,2,1,18,-1.25,8.69,-3.37,-0.07,-0.11,-0.02,L
242,233,2,3,18,-1.08,8.69,-3.21,-0.07,-0.09,0.06,L
243,233,2,1,20,-0.96,8.98,-2.93,-0.05,-0.13,0.00,L
242,234,1,1,20,-1.11,8.91,-3.05,-0.07,-0.17,0.07,L
242,235,2,3,18,-0.96,8.82,-3.06,-0.02,-0.18,0.05,L
242,235,2,1,18,-0.84,9.04,-2.92,-0.03,-0.03,-0.01,L
243,235,1,1,19,-0.98,8.94,-3.01,-0.07,0.00,-0.01,L
242,233,1,2,19,-0.81,9.15,-2.84,-0.08,0.14,-0.05,L
243,233,1,1,20,-1.09,8.86,-2.88,-0.05,0.08,-0.09,L
241,234,1,0,19,-0.75,8.75,-2.86,-0.03,0.13,0.01,L
241,233,1,3,20,-1.03,8.80,-3.19,0.03,0.02,-0.05,L
243,235,1,2,19,-0.88,8.90,-2.92,-0.09,-0.03,-0.05,L
241,235,2,1,19,-1.16,8.94,-2.89,0.03,-0.01,0.03,L
242,233,1,1,19,-0.88,8.84,-2.99,0.01,-0.05,0.02,L
240,234,2,3,19,-0.98,8.81,-2.87,-0.00,-0.01,0.02,L
243,238,1,1,20,-1.05,8.80,-3.05,-0.06,-0.04,0.03,L
242,234,3,3,18,-1.04,9.07,-2.85,-0.09,-0.06,0.09,L
242,233,2,2,18,-0.87,8.92,-2.90,0.04,-0.06,0.03,L
242,233,1,1,19,-0.85,9.05,-2.90,0.02,-0.07,0.01,L
242,233,1,1,18,-0.67,8.88,-3.00,-0.07,-0.02,0.01,L
242,233,3,0,20,-0.84,8.96,-2.97,-0.02,0.00,0.02,L
242,233,2,1,18,-0.68,8.89,-2.98,-0.03,0.01,0.00,L
243,234,3,2,20,-0.87,8.89,-2.95,-0.01,0.00,0.00,L
243,232,1,2,19,-0.81,8.89,-2.99,-0.07,-0.04,0.01,L
242,232,2,2,20,-0.86,8.92,-2.87,0.00,-0.02,0.03,L
242,233,0,1,19,-0.67,8.87,-3.02,-0.01,-0.01,-0.01,L
243,234,0,1,20,-0.74,8.92,-2.85,0.01,0.01,-0.01,L
243,233,3,2,21,-0.80,8.83,-2.82,-0.03,-0.04,-0.03,L
242,234,1,2,20,-0.93,8.91,-3.00,0.01,-0.02,-0.04,L
241,233,1,2,19,-0.92,8.76,-3.03,-0.01,0.02,-0.03,L
243,235,1,2,19,-1.00,8.88,-3.06,-0.06,0.04,-0.02,L
242,233,0,1,19,-1.02,8.81,-3.13,-0.10,0.04,0.02,L
240,234,1,2,19,-1.03,9.00,-2.94,-0.01,0.01,0.01,L
243,234,2,2,21,-0.86,8.83,-2.96,-0.02,-0.06,-0.02,L
243,236,2,1,19,-1.27,8.87,-2.97,-0.09,-0.00,-0.02,L
243,233,3,3,20,-0.54,9.05,-2.54,-0.07,-0.21,0.14,L
243,234,0,2,20,-1.26,9.05,-2.89,0.10,-0.22,0.12,L
242,232,2,3,19,-0.78,9.21,-2.97,0.13,-0.09,0.02,L
243,233,2,1,21,-0.95,8.88,-2.81,0.02,0.01,-0.05,L
242,233,2,3,19,-0.86,8.83,-3.04,0.04,-0.03,-0.05,L
241,232,2,1,19,-1.01,8.82,-3.05,-0.02,-0.01,-0.06,L
243,235,2,2,21,-1.26,8.82,-3.12,-0.03,0.00,-0.02,L
243,233,1,1,20,-1.18,8.98,-2.95,0.00,0.03,-0.01,L
243,229,2,3,19,-1.22,8.91,-3.13,-0.02,0.02,-0.03,L
243,233,1,1,19,-1.25,8.79,-3.05,0.02,0.03,-0.01,L
243,234,2,1,20,-1.19,8.73,-3.17,0.07,0.01,0.01,L
243,234,0,3,19,-1.44,8.83,-3.22,0.02,-0.08,0.01,L
242,233,0,2,19,-1.07,8.49,-3.64,-0.05,0.01,-0.05,L
242,232,2,0,20,-1.42,8.68,-3.00,-0.10,-0.07,-0.00,L
244,233,2,2,20,-1.11,8.77,-3.16,-0.02,0.05,0.03,L
242,235,3,1,18,-1.35,8.82,-2.96,-0.07,-0.03,0.04,L
242,230,2,1,18,-1.18,8.85,-2.94,-0.02,-0.02,0.04,L
243,233,1,0,20,-0.93,8.91,-2.87,0.08,0.02,0.03,L
243,234,1,2,20,-0.91,8.82,-2.99,-0.02,0.03,0.02,L
242,232,2,1,19,-1.02,8.93,-2.89,-0.07,-0.07,0.02,L
243,234,1,1,21,-0.86,8.94,-2.91,-0.01,-0.02,-0.00,L
242,234,2,2,20,-1.02,8.84,-2.99,-0.05,-0.02,0.02,L
242,233,1,2,18,-1.06,8.93,-2.59,0.12,-0.04,0.05,L
189,153,2,4,21,1.84,9.39,-1.05,-0.04,0.06,-0.05,M
182,157,2,4,20,1.78,9.51,-0.79,-0.03,0.14,-0.02,M
190,158,4,3,19,1.88,9.59,-0.82,-0.04,0.01,0.01,M
189,159,3,4,20,1.93,9.47,-0.86,-0.06,-0.03,-0.01,M
191,158,2,3,20,1.80,9.53,-0.88,-0.02,-0.00,-0.01,M
191,158,2,2,21,1.92,9.64,-0.90,-0.01,0.02,0.02,M
191,158,3,4,19,1.79,9.51,-0.87,-0.04,-0.03,-0.01,M
191,159,3,4,20,1.98,9.53,-0.88,-0.02,-0.02,-0.02,M
193,158,2,2,20,1.79,9.61,-0.72,-0.01,-0.04,-0.01,M
186,159,3,4,21,1.95,9.49,-0.88,-0.02,0.00,0.00,M
190,158,3,2,20,1.88,9.62,-0.88,-0.03,-0.04,-0.00,M
189,159,2,3,20,1.82,9.53,-0.78,0.00,-0.02,0.01,M
190,159,2,4,21,1.73,9.52,-0.93,-0.02,0.01,0.02,M
189,157,4,3,21,1.92,9.60,-0.89,-0.00,0.01,0.01,M
186,158,3,2,21,1.83,9.57,-0.83,-0.04,-0.05,0.01,M
194,159,2,2,20,1.92,9.47,-1.01,0.01,-0.02,-0.00,M
191,158,3,2,20,1.93,9.43,-0.91,-0.03,-0.03,0.02,M
186,159,3,4,19,1.90,9.57,-0.85,-0.02,-0.02,-0.01,M
191,159,2,2,20,1.84,9.47,-0.98,-0.02,-0.01,-0.02,M
192,160,2,2,20,1.86,9.48,-0.86,-0.03,-0.00,0.01,M
188,158,4,3,20,1.93,9.68,-0.88,-0.02,-0.02,0.01,M
189,158,3,3,20,1.83,9.57,-0.98,-0.02,-0.01,-0.00,M
191,160,4,3,20,1.84,9.54,-0.80,-0.03,-0.01,-0.01,M
187,159,3,3,20,1.77,9.57,-0.86,-0.06,-0.01,0.02,M
187,159,2,3,20,1.81,9.57,-0.94,-0.00,0.01,0.01,M
191,158,4,4,22,1.84,9.40,-1.02,0.04,0.02,0.02,M
189,162,4,3,21,1.72,9.50,-0.94,-0.03,-0.14,-0.01,M
191,158,2,2,21,1.68,9.68,-1.06,-0.03,-0.08,0.00,M
192,159,4,2,20,1.80,9.53,-1.08,-0.02,0.02,0.01,M
187,158,3,4,21,1.63,9.63,-1.07,0.08,0.37,0.11,M
188,159,2,3,20,1.95,9.43,-0.89,0.00,0.08,-0.02,M
189,160,4,2,21,2.37,9.39,-1.03,0.02,0.21,0.03,M
187,159,3,4,22,2.26,9.39,-1.03,-0.05,0.01,-0.01,M
191,159,3,4,21,2.35,9.52,-1.01,-0.04,-0.10,-0.02,M
183,160,2,4,20,2.22,9.36,-1.12,-0.02,-0.24,0.01,M
188,159,4,3,22,2.15,9.45,-1.10,0.01,-0.17,-0.02,M
190,159,3,4,20,2.06,9.36,-1.17,0.01,-0.13,-0.03,M
186,159,4,3,20,2.08,9.47,-1.10,-0.05,-0.02,-0.03,M
189,159,3,2,21,1.79,9.65,-0.87,-0.13,-0.08,-0.03,M
189,160,3,4,21,1.74,9.78,-0.47,-0.11,-0.14,-0.01,M
191,158,3,4,19,1.58,9.58,-0.62,-0.07,0.03,-0.03,M
189,159,3,4,20,1.75,9.64,-0.56,0.00,-0.08,0.00,M
189,158,3,4,21,1.61,9.63,-0.68,0.21,-0.04,0.08,M
208,159,2,3,20,2.01,9.79,-1.06,0.22,-0.12,0.03,M
189,160,4,3,21,1.88,9.28,-1.64,0.14,0.02,0.03,M
189,159,3,3,20,1.91,9.37,-1.81,0.08,-0.02,0.01,M
195,159,4,3,20,1.79,9.29,-1.81,0.02,-0.03,0.01,M
190,158,3,4,21,2.05,9.09,-1.81,0.02,-0.05,0.03,M
196,161,4,3,20,1.98,9.33,-2.04,-0.03,0.04,0.02,M
189,159,3,2,20,1.89,9.23,-2.00,-0.05,0.02,-0.03,M
188,159,2,3,20,1.92,9.26,-1.83,-0.01,0.02,0.00,M
188,157,2,4,20,2.03,9.31,-2.00,-0.02,-0.01,0.01,M
196,160,4,3,20,1.92,9.31,-1.83,-0.03,-0.05,0.00,M
190,160,2,2,21,1.92,9.28,-1.89,-0.03,-0.02,0.00,M
190,160,2,3,20,1.79,9.21,-1.93,-0.04,-0.02,0.02,M
191,158,5,3,22,1.87,9.34,-1.81,-0.03,0.01,-0.00,M
189,160,3,4,19,1.88,9.26,-1.97,-0.01,0.01,-0.01,M
186,160,4,3,22,1.86,9.30,-1.81,-0.03,-0.02,0.00,M
218,161,4,3,21,2.63,9.48,-0.36,-0.01,0.06,0.02,N
214,159,3,3,21,2.43,9.68,-0.11,0.05,-0.06,0.03,N
214,160,2,3,21,2.50,9.57,-0.13,0.00,-0.01,-0.03,N
217,160,2,3,21,2.67,9.42,-0.22,-0.01,0.01,0.02,N
216,160,4,3,22,2.58,9.54,-0.21,-0.03,-0.02,-0.02,N
215,159,2,3,20,2.48,9.54,-0.09,-0.01,-0.01,-0.02,N
216,160,2,4,21,2.40,9.58,-0.10,-0.02,-0.04,-0.02,N
216,161,4,4,22,2.37,9.62,-0.05,-0.01,0.07,-0.01,N
214,159,5,3,22,2.69,9.61,-0.08,0.02,0.04,0.01,N
215,160,2,3,20,2.43,9.55,0.04,-0.04,-0.03,0.01,N
216,160,2,3,21,2.46,9.49,-0.01,-0.03,0.00,-0.02,N
215,161,3,4,21,2.62,9.43,0.01,-0.01,-0.01,0.02,N
216,159,3,2,21,2.48,9.59,-0.00,-0.02,-0.06,-0.00,N
215,161,2,3,20,2.51,9.65,-0.12,-0.07,-0.12,-0.00,N
216,161,2,2,21,2.32,9.49,-0.09,-0.03,-0.02,-0.00,N
216,160,2,3,21,2.55,9.65,-0.39,0.01,-0.04,0.04,N
217,163,3,3,21,2.36,9.45,-0.09,-0.10,-0.04,-0.07,N
217,160,3,2,20,1.50,9.82,0.00,-0.07,-0.00,0.00,N
216,160,3,4,21,2.32,9.52,-0.14,0.03,-0.11,0.08,N
217,160,2,3,22,2.29,9.41,-0.55,-0.03,0.02,-0.01,N
217,161,3,4,21,2.27,9.45,-0.48,-0.36,-0.58,-0.03,N
215,160,4,3,21,2.34,9.56,-0.24,0.02,0.05,0.03,N
218,161,3,2,21,2.49,9.52,-0.28,-0.03,0.00,0.01,N
217,161,3,2,21,2.17,9.52,-0.16,-0.04,0.00,-0.02,N
217,161,3,3,21,2.44,9.65,-0.24,0.01,-0.04,0.01,N
215,160,3,3,21,2.57,9.46,-0.33,-0.04,-0.02,-0.00,N
216,160,4,2,21,2.26,9.49,-0.24,-0.04,-0.03,-0.03,N
216,159,3,2,22,2.18,9.68,-0.38,-0.01,0.01,0.01,N
214,161,2,2,20,2.23,9.62,-0.39,-0.00,-0.03,0.02,N
216,161,3,3,20,2.20,9.51,-0.23,-0.01,0.00,-0.00,N
217,161,3,4,21,2.29,9.58,-0.46,-0.02,-0.04,0.03,N
216,160,3,4,22,2.33,9.42,-0.35,-0.03,0.00,-0.01,N
217,160,4,2,21,2.36,9.47,-0.38,-0.02,-0.01,0.02,N
215,161,4,2,21,2.37,9.58,-0.41,-0.02,0.00,-0.00,N
217,160,3,2,22,2.45,9.45,-0.32,-0.00,0.03,0.04,N
216,161,3,5,21,2.40,9.59,-0.30,-0.04,0.01,0.04,N
219,160,2,2,21,2.54,9.46,-0.47,-0.01,0.03,0.01,N
216,160,2,2,21,2.59,9.54,-0.16,-0.13,-0.05,0.05,N
216,161,3,1,21,2.36,9.53,-0.25,-0.00,-0.02,-0.02,N
218,162,3,2,21,2.42,9.52,-0.21,0.04,0.00,0.00,N
216,161,3,4,21,2.44,9.45,-0.38,-0.02,-0.01,-0.02,N
217,160,3,2,21,2.43,9.58,-0.23,-0.04,-0.03,0.01,N
207,161,2,3,21,2.52,9.62,-0.25,0.01,-0.02,0.02,N
216,161,4,3,22,2.49,9.56,-0.32,0.01,-0.02,-0.01,N
217,160,4,2,21,2.52,9.47,-0.28,-0.02,-0.00,-0.00,N
216,161,3,1,21,2.59,9.73,-0.03,-0.02,-0.01,0.01,N
216,161,4,3,22,2.54,9.46,-0.25,-0.01,-0.04,0.02,N
217,162,2,2,21,2.53,9.47,0.01,0.01,0.02,-0.01,N
218,159,3,2,21,2.52,9.51,-0.12,-0.03,-0.03,0.00,N
217,162,3,4,21,2.54,9.67,-0.03,-0.01,-0.02,0.01,N
216,161,4,3,22,2.32,9.60,-0.09,-0.00,-0.05,-0.00,N
218,161,2,3,20,2.20,9.57,-0.26,0.00,-0.02,-0.01,N
218,162,4,3,21,2.38,9.55,-0.26,-0.01,-0.03,-0.01,N
217,162,3,2,21,2.31,9.58,-0.26,-0.01,-0.02,-0.01,N
217,161,3,3,21,2.30,9.53,-0.26,-0.02,-0.01,-0.01,N
217,162,4,2,20,2.40,9.51,-0.23,-0.01,-0.00,0.06,N
217,162,4,3,20,2.39,9.58,-0.34,-0.00,0.01,0.01,N
218,162,3,3,21,2.39,9.41,-0.39,-0.03,-0.02,-0.01,N
217,162,2,3,21,2.36,9.56,-0.11,-0.03,-0.00,0.06,N
221,160,4,2,21,2.55,9.50,-0.34,-0.02,-0.04,-0.01,N
216,162,3,3,22,2.48,9.60,-0.19,0.00,0.00,0.00,N
220,160,3,4,21,2.52,9.44,-0.27,0.01,0.04,-0.02,N
217,169,3,3,20,2.55,9.55,-0.41,-0.03,-0.01,0.02,N
217,162,2,4,21,2.52,9.44,-0.33,-0.05,-0.04,0.01,N
214,163,3,4,21,2.54,9.61,-0.15,-0.02,-0.03,-0.01,N
216,162,4,3,23,2.49,9.51,-0.28,-0.02,-0.02,-0.01,N
217,162,2,3,21,2.42,9.57,-0.28,-0.02,-0.03,-0.01,N
219,160,4,2,21,2.38,9.54,-0.24,-0.02,-0.01,-0.03,N
216,162,4,3,21,2.41,9.48,-0.29,-0.02,-0.02,-0.01,N
221,162,4,2,21,2.37,9.54,-0.28,-0.01,-0.06,-0.00,N
218,162,3,2,21,2.46,9.40,-0.14,-0.02,-0.05,0.02,N
181,123,2,1,18,2.69,9.36,-1.34,-0.07,0.21,-0.07,O
179,124,1,1,18,2.47,9.34,-0.95,-0.01,-0.07,-0.01,O
178,125,2,1,19,2.50,9.30,-1.06,-0.04,-0.12,-0.00,O
179,122,1,2,17,2.44,9.32,-1.15,-0.03,-0.22,-0.04,O
180,123,2,2,18,2.55,9.32,-1.18,-0.04,-0.18,-0.02,O
178,124,1,0,18,2.54,9.28,-1.26,0.02,-0.12,0.01,O
179,118,1,2,17,2.24,9.40,-1.29,-0.01,-0.13,-0.01,O
180,123,1,1,17,2.37,9.40,-1.43,0.02,0.12,0.05,O
180,129,3,0,17,2.27,9.29,-1.36,-0.02,0.02,0.02,O
180,133,1,0,17,2.36,9.31,-1.49,-0.05,-0.12,-0.01,O
179,124,0,2,17,2.34,9.35,-1.36,-0.02,-0.04,-0.03,O
180,125,1,1,17,2.38,9.32,-1.35,-0.00,-0.00,0.02,O
180,123,2,3,19,2.27,9.43,-1.37,-0.04,-0.04,-0.01,O
179,125,2,3,17,2.45,9.34,-1.35,0.01,0.00,0.02,O
181,125,2,2,18,2.41,9.16,-1.43,-0.03,-0.04,-0.01,O
180,125,2,1,16,2.31,9.43,-1.46,-0.02,0.01,-0.00,O
181,125,1,1,16,2.39,9.26,-1.30,0.00,0.00,0.01,O
187,124,1,2,17,2.35,9.33,-1.34,-0.03,0.00,0.01,O
180,124,0,1,16,2.52,9.34,-1.44,0.01,-0.04,0.01,O
181,125,3,1,18,2.44,9.31,-1.43,-0.09,0.05,0.03,O
186,125,2,1,16,2.91,9.37,-0.93,0.02,0.39,0.12,O
181,124,1,1,17,2.96,9.15,-0.97,-0.01,-0.01,-0.03,O
181,124,2,2,17,3.15,9.30,-0.99,0.02,-0.40,-0.04,O
180,127,2,3,18,2.51,9.03,-1.99,-0.05,-0.48,-0.07,O
181,125,1,1,15,2.40,9.30,-1.75,-0.01,-0.03,-0.01,O
182,130,2,1,18,1.84,9.39,-1.48,-0.03,-0.30,-0.03,O
181,125,1,2,17,2.18,9.20,-1.76,0.01,-0.09,-0.02,O
181,124,1,1,17,2.00,9.17,-1.92,-0.00,0.02,0.01,O
182,128,2,1,18,2.24,9.17,-1.99,0.05,0.57,0.08,O
182,127,1,1,17,2.60,9.20,-1.61,-0.03,0.47,0.02,O
181,124,1,0,17,2.82,9.12,-1.42,-0.06,0.04,-0.02,O
181,126,1,1,18,2.69,9.34,-1.36,-0.04,-0.04,-0.03,O
183,127,1,2,17,2.73,9.13,-1.29,-0.02,-0.04,0.00,O
182,127,1,1,17,2.66,9.36,-1.23,-0.07,-0.07,-0.01,O
181,125,3,1,16,2.65,9.27,-1.24,-0.04,-0.16,-0.01,O
180,126,2,3,16,3.02,9.26,-1.19,-0.11,-0.22,-0.04,O
182,127,2,1,16,2.41,9.39,-1.57,0.03,-0.05,-0.03,O
183,129,1,1,17,2.42,9.35,-1.30,-0.05,-0.06,0.04,O
182,127,0,1,16,2.88,9.26,-1.28,-0.13,-0.50,-0.06,O
182,128,1,2,17,1.99,9.49,-1.34,-0.02,-0.00,0.03,O
182,126,2,1,17,2.28,9.36,-1.32,0.00,0.00,0.02,O
182,127,1,0,17,2.30,9.38,-1.35,-0.01,0.26,0.05,O
182,128,1,0,18,2.32,9.34,-1.13,-0.01,0.00,0.00,O
183,127,1,2,17,2.86,9.29,-1.25,0.09,0.56,0.13,O
182,127,2,3,17,3.40,8.99,-1.03,0.00,0.40,0.12,O
183,126,2,2,19,3.11,9.22,-0.96,-0.03,0.03,-0.00,O
184,127,1,3,18,2.95,9.23,-0.86,-0.03,-0.30,-0.07,O
183,126,1,1,18,3.10,9.20,-1.02,-0.03,-0.02,-0.03,O
183,128,3,2,17,2.80,9.35,-1.04,-0.03,0.01,-0.08,O
183,127,1,1,17,2.76,9.26,-0.84,0.01,-0.03,0.01,O
183,126,1,1,19,2.91,9.32,-1.01,-0.03,0.01,0.00,O
182,128,2,1,16,2.80,9.35,-0.79,-0.06,-0.14,-0.03,O
183,128,1,2,18,2.74,9.34,-0.72,-0.04,0.06,0.01,O
183,128,3,1,18,3.12,9.36,-0.74,-0.01,-0.03,0.00,O
187,129,3,3,17,3.04,9.15,-0.63,-0.02,-0.18,0.02,O
183,127,0,1,18,3.11,9.24,-1.12,0.05,-0.24,0.06,O
184,125,2,2,19,3.45,9.14,-1.02,-0.08,-0.42,-0.03,O
186,127,0,1,18,3.03,9.20,-1.27,-0.02,-0.10,-0.03,O
183,125,1,0,18,3.03,9.15,-1.34,-0.10,-0.28,-0.07,O
182,128,1,1,17,2.85,9.16,-1.55,0.07,-0.25,-0.01,O
188,128,1,2,19,2.46,9.29,-1.36,-0.08,0.04,-0.09,O
184,126,1,2,19,2.44,9.36,-1.24,-0.03,-0.05,0.00,O
184,125,2,1,19,2.41,9.32,-1.31,0.03,0.01,-0.00,O
183,130,2,3,19,2.41,9.24,-1.49,0.00,-0.02,-0.01,O
184,128,2,2,19,2.36,9.29,-1.45,-0.03,-0.00,-0.00,O
183,133,0,1,18,2.73,9.31,-1.55,0.05,0.52,0.14,O
184,128,2,2,17,2.67,9.40,-0.96,-0.02,0.09,0.00,O
184,127,2,2,17,3.17,9.32,-0.83,-0.00,0.24,0.01,O
183,125,0,1,18,3.33,9.22,-1.12,-0.03,0.05,-0.00,O
186,128,3,3,19,2.89,9.17,-1.02,-0.02,-0.02,-0.03,O
183,127,1,1,18,3.22,9.28,-0.97,-0.00,0.18,0.02,O
184,131,2,1,17,2.62,9.40,-1.12,0.10,0.30,-0.01,O
184,127,1,0,18,2.82,9.32,-0.88,-0.04,-0.01,0.01,O
185,126,1,2,18,2.94,9.31,-1.01,-0.02,-0.01,-0.01,O
185,127,3,3,19,2.82,9.11,-1.23,0.02,-0.32,-0.02,O
185,127,2,2,18,2.72,9.35,-1.10,0.01,-0.06,0.03,O
185,127,1,1,18,2.64,9.31,-1.20,-0.02,-0.01,0.00,O
181,126,2,1,18,2.72,9.23,-1.27,0.01,0.05,-0.05,O
184,128,2,2,18,2.70,9.34,-1.32,0.00,-0.04,-0.03,O
184,127,2,3,18,2.69,9.30,-1.28,0.00,-0.01,0.01,O
183,127,2,2,18,2.62,9.31,-1.31,0.01,-0.05,-0.03,O
185,128,1,1,19,2.36,9.15,-1.32,-0.04,-0.05,0.00,O
185,128,0,1,16,2.54,9.31,-1.19,-0.02,-0.03,-0.03,O
185,127,3,2,19,2.46,9.36,-1.26,-0.10,0.05,0.01,O
230,236,6,2,19,1.29,-8.71,-3.54,0.05,-0.05,-0.04,P
226,236,6,3,20,1.51,-8.76,-4.23,-0.19,0.05,-0.07,P
230,238,6,2,19,1.70,-8.33,-4.09,-0.05,-0.04,-0.01,P
229,237,5,3,21,1.44,-8.59,-3.86,0.19,0.09,-0.07,P
231,236,5,2,20,1.51,-8.40,-4.06,-0.07,-0.07,0.05,P
231,235,4,2,20,1.23,-8.33,-3.87,-0.09,-0.07,0.01,P
230,234,6,1,20,1.50,-8.56,-3.95,0.03,-0.03,0.03,P
233,235,4,2,20,1.52,-8.37,-3.69,-0.02,-0.06,0.03,P
230,234,4,0,20,1.61,-8.53,-3.89,0.03,-0.01,0.01,P
231,236,5,3,19,1.27,-8.50,-3.90,-0.01,0.01,-0.02,P
230,235,6,2,20,1.41,-8.67,-3.77,0.03,-0.07,0.07,P
229,235,5,2,20,1.12,-8.63,-3.87,0.10,-0.01,0.01,P
231,235,5,1,20,0.99,-8.39,-3.39,0.15,0.05,0.03,P
232,235,6,2,21,1.14,-8.88,-3.51,-0.04,0.02,-0.03,P
230,236,4,1,20,1.15,-8.61,-3.55,-0.07,0.01,0.00,P
231,235,4,2,20,1.18,-8.80,-3.51,-0.01,-0.04,0.00,P
231,235,5,1,20,1.07,-8.83,-3.54,-0.10,-0.09,0.04,P
230,234,5,2,20,1.15,-8.73,-3.60,-0.04,0.03,-0.06,P
231,237,4,0,20,1.17,-8.55,-3.48,0.05,0.01,-0.01,P
230,234,5,2,20,1.06,-8.67,-3.47,-0.03,0.00,0.04,P
230,235,5,2,20,1.07,-8.71,-3.45,-0.06,-0.05,-0.06,P
230,234,5,3,19,1.21,-8.88,-3.52,0.10,0.04,-0.10,P
230,235,6,2,20,1.09,-8.72,-3.54,-0.11,0.02,0.03,P
230,235,5,2,20,0.98,-8.53,-3.53,0.02,-0.11,0.04,P
226,236,4,3,21,1.05,-8.64,-3.56,0.05,-0.05,0.02,P
231,235,4,2,20,1.15,-8.66,-3.64,-0.03,0.01,-0.01,P
232,235,5,3,21,1.17,-8.66,-3.58,-0.04,0.02,0.03,P
229,236,5,2,21,1.21,-8.68,-3.56,0.02,-0.06,0.02,P
231,235,5,2,20,1.02,-8.60,-3.48,0.00,-0.03,0.01,P
229,235,5,1,20,1.10,-8.68,-3.52,0.01,0.02,-0.04,P
233,235,4,1,21,1.13,-8.69,-3.43,0.01,-0.01,0.00,P
230,235,4,3,20,1.38,-8.66,-3.25,0.06,0.00,-0.01,P
227,235,6,3,20,0.99,-8.75,-3.32,-0.06,-0.07,-0.05,P
229,235,5,2,21,0.96,-8.57,-3.28,-0.11,0.02,-0.05,P
230,236,4,3,21,1.19,-8.69,-3.45,-0.09,-0.05,0.02,P
229,235,4,2,21,1.31,-8.86,-3.60,-0.06,0.02,0.01,P
231,234,6,1,20,1.21,-8.65,-3.28,0.05,0.05,-0.07,P
229,234,5,2,21,0.77,-8.69,-3.87,-0.17,0.04,-0.05,P
229,235,5,2,20,1.59,-8.75,-3.58,0.01,-0.02,-0.07,P
229,235,5,1,19,1.23,-8.52,-3.49,-0.02,-0.04,0.02,P
230,234,5,3,20,1.30,-8.60,-3.67,-0.00,0.04,-0.01,P
229,236,6,3,21,1.41,-8.48,-3.44,0.08,0.02,0.03,P
230,235,6,3,22,1.19,-8.69,-3.62,0.05,-0.09,0.08,P
230,233,5,2,21,1.13,-8.83,-3.73,0.07,0.04,0.05,P
229,234,5,2,20,1.02,-8.68,-3.30,-0.03,0.02,0.05,P
230,235,6,3,21,1.02,-8.77,-3.41,-0.03,0.02,0.01,P
229,235,5,2,21,0.84,-8.96,-3.43,-0.04,-0.05,0.08,P
229,236,5,1,21,0.98,-8.44,-3.06,0.05,-0.03,0.04,P
228,235,4,0,20,0.94,-8.97,-3.38,0.00,-0.02,0.02,P
228,235,6,3,20,0.98,-8.99,-3.64,-0.15,0.09,-0.14,P
230,235,5,2,20,1.05,-8.77,-3.26,-0.05,-0.00,-0.01,P
229,235,5,4,21,1.01,-8.68,-3.27,0.03,-0.07,-0.00,P
229,236,5,3,21,1.05,-8.87,-3.32,0.03,0.00,-0.02,P
229,235,6,2,21,0.98,-8.92,-3.22,-0.05,0.02,-0.02,P
229,235,5,3,22,1.07,-8.90,-3.31,-0.03,0.04,-0.03,P
228,235,4,2,20,1.06,-8.83,-3.06,0.05,0.00,0.00,P
229,235,5,2,21,0.99,-8.92,-3.15,0.02,0.02,0.01,P
230,235,5,2,21,0.90,-9.15,-3.25,0.11,0.02,0.08,P
229,236,5,1,20,0.91,-8.96,-2.88,0.10,-0.00,0.02,P
231,236,5,4,21,0.87,-9.03,-2.86,-0.03,-0.04,0.03,P
229,234,5,2,21,0.82,-9.04,-2.63,0.00,-0.02,0.05,P
229,235,4,2,21,0.79,-9.04,-2.78,-0.01,-0.04,0.01,P
229,235,5,2,21,0.91,-9.06,-2.79,-0.04,-0.03,0.00,P
229,239,6,3,21,0.99,-9.08,-2.84,-0.07,0.02,0.01,P
228,236,4,1,20,0.84,-8.88,-2.87,-0.04,-0.06,0.02,P
230,234,7,2,20,0.94,-9.05,-2.79,0.05,-0.12,0.03,P
230,236,4,2,21,1.03,-9.02,-2.73,0.01,-0.05,-0.03,P
231,235,5,3,21,1.00,-9.11,-2.85,0.02,-0.02,0.01,P
229,236,5,3,21,1.08,-8.89,-2.77,0.04,-0.04,0.02,P
231,231,5,3,19,1.02,-8.89,-2.96,-0.06,0.00,0.00,P
230,235,4,2,21,1.04,-9.05,-3.07,0.03,-0.01,0.02,P
230,235,4,2,21,1.00,-9.02,-3.08,-0.02,-0.03,0.00,P
230,234,7,3,20,1.01,-8.98,-3.16,-0.01,-0.11,0.08,P
230,236,5,4,21,0.96,-8.97,-2.97,-0.05,-0.07,0.03,P
231,239,4,1,20,0.89,-8.98,-3.13,-0.04,-0.10,0.04,P
231,236,5,2,21,0.88,-8.86,-3.00,0.03,-0.08,0.05,P
231,236,4,2,21,0.89,-8.99,-2.96,0.11,-0.09,0.04,P
231,235,6,4,21,1.11,-8.99,-2.89,0.05,-0.05,0.07,P
231,229,5,2,21,0.99,-9.09,-2.84,0.02,-0.10,0.05,P
231,236,5,3,21,1.00,-9.06,-2.83,0.01,-0.08,0.03,P
238,235,5,3,21,1.04,-9.07,-2.89,-0.00,-0.10,0.06,P
231,235,5,2,20,0.87,-9.11,-2.94,-0.07,0.01,-0.03,P
231,235,6,4,21,0.98,-9.06,-2.97,-0.05,0.01,-0.03,P
230,235,6,3,22,0.80,-9.05,-3.07,-0.01,-0.02,0.00,P
230,235,4,2,20,0.83,-9.16,-2.85,-0.06,-0.02,0.03,P
230,235,5,2,20,0.83,-8.93,-2.74,-0.00,-0.03,0.01,P
231,234,5,1,21,0.82,-9.07,-2.95,-0.02,0.12,-0.06,P
231,235,4,2,20,0.92,-9.04,-2.81,0.17,-0.12,0.03,P
231,234,5,2,22,0.78,-8.93,-2.90,-0.05,-0.09,0.02,P
229,235,6,3,21,1.02,-8.94,-2.96,0.04,-0.07,0.08,P
229,235,6,3,22,0.84,-9.01,-2.93,0.04,-0.10,0.02,P
232,235,6,2,22,0.89,-9.14,-3.06,-0.04,0.02,0.02,P
233,235,5,2,19,0.85,-8.98,-2.77,0.02,0.03,-0.02,P
231,234,5,2,20,0.85,-9.15,-2.87,0.07,0.00,0.02,P
232,235,6,3,22,0.95,-8.97,-2.71,-0.01,-0.00,-0.01,P
231,234,5,2,20,0.88,-9.16,-2.87,-0.01,-0.02,-0.02,P
231,235,5,3,22,0.79,-9.01,-2.82,-0.02,-0.03,-0.01,P
231,234,5,2,21,0.86,-9.01,-2.77,-0.01,-0.00,-0.01,P
232,234,5,3,22,0.86,-9.21,-3.01,-0.05,-0.03,0.00,P
231,234,6,2,21,0.80,-9.05,-2.78,0.00,-0.05,-0.01,P
231,235,5,2,21,0.80,-9.02,-2.74,-0.05,0.03,-0.05,P
231,234,6,2,22,0.93,-9.00,-2.79,-0.01,-0.05,0.03,P
231,234,5,2,20,0.81,-9.04,-2.91,-0.10,-0.03,-0.02,P
230,233,4,1,20,0.98,-9.11,-2.88,-0.00,0.00,0.01,P
231,237,5,2,22,0.95,-9.02,-2.78,0.04,-0.05,0.01,P
230,235,5,4,22,1.03,-9.13,-2.82,-0.02,-0.04,-0.02,P
240,235,2,1,14,6.53,6.41,5.79,0.01,-0.10,-0.01,Q
240,235,2,1,15,6.62,6.05,5.72,0.03,-0.09,-0.05,Q
245,235,1,1,15,6.60,6.21,5.40,0.09,-0.01,-0.02,Q
241,236,1,0,15,6.54,6.44,5.23,0.03,-0.07,0.03,Q
236,235,0,1,14,6.61,6.42,5.26,-0.02,-0.06,-0.03,Q
234,235,3,2,15,6.45,6.55,5.23,-0.03,-0.00,-0.00,Q
239,234,2,2,15,6.43,6.65,5.24,-0.01,-0.04,-0.02,Q
245,234,1,1,15,6.40,6.41,5.16,-0.04,-0.04,0.01,Q
240,236,3,3,14,6.46,6.56,5.25,-0.01,-0.02,0.04,Q
240,234,1,2,15,6.61,6.50,5.19,0.01,-0.04,-0.00,Q
240,235,2,1,14,6.53,6.42,5.21,0.01,-0.01,0.03,Q
240,235,1,1,15,6.65,6.44,5.18,-0.01,-0.04,0.03,Q
240,234,0,0,15,6.58,6.37,5.14,0.05,-0.06,-0.01,Q
240,235,1,2,15,6.71,6.63,5.06,-0.01,-0.03,0.01,Q
240,235,1,2,15,6.63,6.70,5.13,0.01,-0.01,0.02,Q
240,235,2,2,15,6.82,6.22,5.07,0.02,-0.06,0.00,Q
240,239,1,1,15,6.49,6.48,5.13,-0.07,0.03,-0.04,Q
239,236,2,2,15,6.65,6.49,5.19,-0.05,0.00,0.01,Q
240,234,1,1,15,6.57,6.57,5.17,-0.06,-0.00,0.04,Q
241,235,1,1,16,6.62,6.51,5.08,-0.02,-0.04,-0.02,Q
240,234,0,1,14,6.59,6.69,5.22,-0.02,-0.06,-0.01,Q
239,235,2,2,16,6.52,6.52,5.04,0.01,-0.00,0.04,Q
238,235,0,1,15,6.77,6.44,5.01,-0.05,-0.03,-0.00,Q
240,235,2,2,16,6.77,6.54,5.16,0.01,-0.02,0.01,Q
232,235,0,1,15,6.71,6.51,5.04,-0.01,-0.02,-0.01,Q
240,237,1,1,14,6.65,6.46,4.99,-0.02,-0.02,-0.01,Q
240,234,2,1,17,6.81,6.36,5.10,-0.05,-0.03,-0.02,Q
240,234,1,2,15,6.64,6.45,5.02,-0.02,-0.03,0.01,Q
240,236,1,1,16,6.73,6.49,4.97,0.00,0.01,-0.01,Q
240,234,0,1,14,6.65,6.55,5.12,-0.06,-0.02,0.01,Q
240,234,1,1,15,6.83,6.44,5.06,0.01,-0.06,0.01,Q
239,235,1,2,15,6.69,6.54,4.92,0.05,0.04,0.00,Q
241,235,2,2,16,6.61,6.34,4.98,-0.05,-0.01,-0.00,Q
239,235,1,1,15,6.75,6.51,5.09,-0.00,0.05,-0.03,Q
240,235,1,1,16,6.70,6.68,5.03,-0.02,-0.05,-0.04,Q
239,236,2,2,16,6.87,6.97,5.00,-0.05,-0.12,-0.11,Q
241,238,1,2,16,6.48,6.83,4.95,0.01,-0.03,-0.02,Q
240,235,0,1,15,6.42,6.53,4.73,0.00,0.03,0.06,Q
241,240,1,0,15,6.57,6.79,4.77,-0.06,-0.03,0.02,Q
239,234,1,2,16,6.76,6.68,4.81,-0.02,-0.07,0.04,Q
241,235,1,2,15,6.53,6.62,4.72,0.04,-0.03,0.03,Q
241,235,1,0,15,6.56,6.60,4.72,0.01,-0.00,0.05,Q
241,235,1,1,15,6.45,6.58,4.64,0.02,0.02,0.02,Q
240,235,1,1,17,6.73,6.58,4.70,-0.03,0.02,0.01,Q
239,235,1,2,15,6.86,6.69,4.82,-0.02,0.00,0.02,Q
241,235,2,3,16,6.84,6.67,5.36,0.11,0.07,0.07,Q
241,235,1,1,15,6.73,6.81,4.10,0.38,0.00,-0.03,Q
240,242,0,1,15,6.44,7.01,4.12,0.09,-0.05,-0.15,Q
240,235,1,2,15,6.60,7.06,3.89,0.11,-0.04,-0.10,Q
240,236,2,1,14,6.12,7.31,3.66,0.02,-0.05,-0.04,Q
240,236,2,3,16,6.11,7.42,3.81,-0.01,0.00,0.00,Q
239,235,2,1,16,6.34,7.46,3.86,-0.11,-0.03,0.05,Q
242,236,2,1,17,6.54,7.31,3.60,-0.04,0.06,0.07,Q
240,237,2,1,14,6.34,7.35,4.01,0.02,-0.03,0.02,Q
240,235,1,1,15,6.47,7.03,4.01,-0.09,-0.05,0.05,Q
240,235,2,1,16,6.44,7.22,3.97,-0.05,-0.12,0.09,Q
240,234,2,3,17,6.64,7.74,4.05,-0.02,0.01,0.02,Q
241,235,1,2,17,6.80,7.36,4.05,0.04,-0.00,0.03,Q
242,235,3,3,17,6.77,6.98,4.11,0.05,0.04,0.02,Q
240,235,1,1,16,6.52,6.67,4.04,0.03,0.09,-0.01,Q
240,235,1,2,16,6.75,7.01,4.02,0.11,-0.03,0.02,Q
239,235,1,2,15,6.86,7.08,3.60,0.08,-0.01,-0.03,Q
239,236,1,1,16,6.82,7.14,3.77,0.05,-0.02,0.01,Q
240,236,2,3,15,6.45,7.03,3.44,0.00,0.01,0.02,Q
239,236,3,1,16,6.76,7.13,3.55,-0.02,0.02,-0.00,Q
240,236,1,3,16,6.65,7.11,3.69,-0.03,-0.04,-0.02,Q
241,237,2,1,15,6.68,7.12,3.73,0.03,-0.00,0.01,Q
241,236,2,2,15,6.54,7.16,3.51,-0.04,-0.02,0.04,Q
240,234,1,2,15,6.43,7.30,3.75,-0.06,-0.03,0.00,Q
241,234,1,2,15,6.80,7.11,3.54,-0.02,-0.06,0.01,Q
240,234,2,2,16,6.70,7.04,3.59,-0.03,-0.02,0.01,Q
240,235,1,2,17,6.62,7.20,3.68,-0.02,-0.04,0.00,Q
240,235,1,1,16,6.62,7.21,3.60,-0.04,-0.01,0.01,Q
240,237,0,1,15,6.65,7.16,3.89,0.04,0.06,-0.00,Q
239,234,1,1,16,6.67,7.26,3.45,-0.04,-0.04,0.03,Q
240,234,2,2,16,6.75,7.11,3.75,-0.02,-0.02,0.00,Q
241,234,1,0,17,6.90,7.14,3.44,-0.07,-0.05,-0.03,Q
239,234,2,2,17,6.51,7.01,3.85,-0.03,-0.02,-0.02,Q
240,234,1,2,16,6.63,6.98,3.65,-0.02,-0.03,-0.01,Q
240,234,1,2,17,6.71,7.13,3.76,-0.04,-0.02,-0.01,Q
240,238,2,1,16,6.61,7.24,3.77,-0.07,-0.05,-0.00,Q
239,236,0,1,15,6.65,7.02,3.72,-0.01,-0.01,0.01,Q
240,235,0,1,15,6.73,6.97,3.67,-0.02,0.03,0.02,Q
240,233,2,3,16,6.66,6.95,3.68,-0.08,-0.04,-0.00,Q
239,234,1,0,15,6.61,6.97,3.79,-0.07,-0.01,-0.00,Q
240,236,1,3,16,6.70,6.92,3.83,0.02,-0.03,-0.00,Q
241,231,1,1,16,6.62,7.15,3.79,-0.02,-0.01,-0.00,Q
241,235,1,1,14,6.62,7.14,3.85,-0.01,-0.01,0.00,Q
239,234,2,2,15,6.65,7.16,3.90,-0.04,-0.04,0.00,Q
240,233,0,1,16,6.79,7.08,3.74,0.00,-0.04,0.01,Q
240,234,2,1,17,6.63,7.10,3.84,-0.02,-0.01,-0.02,Q
239,234,1,1,16,6.65,7.05,3.75,0.01,0.01,0.02,Q
238,236,1,3,17,6.68,7.14,3.77,-0.01,-0.02,-0.01,Q
240,235,0,1,14,6.83,7.04,3.85,-0.02,-0.01,-0.00,Q
240,234,1,2,15,6.74,7.04,3.75,-0.02,-0.02,0.00,Q
240,239,2,3,16,6.70,7.04,3.73,-0.01,-0.00,0.00,Q
239,235,2,1,16,6.81,6.98,3.79,-0.04,-0.03,0.00,Q
239,235,2,2,16,6.72,7.01,3.75,-0.04,-0.05,0.01,Q
240,237,1,1,15,6.76,7.12,3.86,-0.03,-0.03,0.00,Q
192,255,4,3,16,4.07,8.83,-0.97,-0.07,-0.02,-0.02,R
193,253,5,1,17,4.12,8.94,-1.08,-0.02,0.05,0.00,R
192,253,4,1,16,3.95,8.96,-0.85,-0.02,-0.03,-0.01,R
192,252,4,2,17,3.99,8.88,-0.88,-0.03,-0.00,-0.01,R
191,253,4,1,18,4.09,8.93,-0.88,-0.03,-0.00,-0.00,R
192,240,4,2,17,4.03,8.99,-0.97,-0.03,-0.01,0.02,R
191,253,5,0,17,3.96,8.89,-0.96,-0.04,-0.04,-0.00,R
190,253,4,3,16,4.09,8.92,-0.83,-0.02,0.02,0.01,R
193,252,5,2,18,4.08,8.93,-0.91,-0.02,-0.00,0.01,R
193,254,4,2,18,4.17,8.96,-0.89,-0.00,0.02,0.01,R
190,251,5,0,17,4.15,8.90,-0.85,-0.02,-0.07,0.03,R
192,252,3,2,17,4.21,8.89,-0.91,0.01,-0.06,0.01,R
196,252,5,3,17,4.12,8.90,-0.90,-0.02,-0.03,-0.02,R
193,253,4,1,17,4.15,8.91,-0.88,-0.04,-0.07,0.02,R
193,253,3,3,18,4.09,8.84,-0.79,0.02,-0.00,-0.02,R
194,253,4,1,17,4.19,8.85,-0.96,-0.00,0.00,-0.01,R
193,255,5,2,16,4.15,8.87,-0.98,-0.03,-0.02,0.00,R
193,251,4,1,18,4.08,8.90,-0.96,-0.01,-0.01,-0.00,R
194,250,4,1,16,4.19,8.91,-1.01,-0.01,-0.05,-0.01,R
196,258,4,2,16,4.05,8.91,-0.91,-0.02,-0.07,0.01,R
194,252,3,2,17,4.08,8.90,-0.85,0.01,-0.09,-0.01,R
196,252,4,2,18,4.12,8.92,-0.83,-0.01,-0.08,-0.01,R
195,256,5,2,19,3.96,8.89,-0.92,-0.03,-0.07,0.02,R
195,253,3,3,18,4.13,8.88,-0.89,-0.00,-0.03,-0.01,R
197,251,5,1,18,4.16,8.85,-1.00,-0.04,-0.03,0.01,R
194,250,4,2,17,4.16,8.94,-0.99,-0.01,-0.05,0.00,R
196,252,5,1,17,4.12,8.99,-0.76,-0.01,-0.09,0.00,R
196,248,4,1,18,4.17,8.84,-0.78,-0.02,-0.10,0.00,R
196,251,4,1,16,4.06,8.91,-0.91,-0.03,-0.04,0.00,R
197,253,5,2,19,3.94,8.79,-0.87,-0.04,-0.05,0.02,R
195,254,4,1,16,4.09,8.84,-0.95,-0.01,-0.05,-0.02,R
195,253,4,1,17,4.23,8.85,-0.75,-0.04,-0.05,0.00,R
196,253,5,3,18,4.12,8.86,-0.90,-0.01,-0.06,-0.00,R
197,255,3,0,17,4.03,8.94,-0.84,-0.04,-0.04,0.01,R
196,252,4,1,18,4.19,8.79,-0.84,0.02,-0.02,0.01,R
196,253,4,3,17,4.21,8.88,-0.82,0.00,-0.05,-0.01,R
196,252,6,1,16,4.04,8.96,-0.86,-0.01,-0.01,-0.03,R
195,255,4,3,18,4.08,8.84,-0.94,-0.01,-0.04,0.04,R
196,251,4,2,17,4.23,8.83,-1.00,-0.01,-0.02,-0.01,R
196,252,3,2,19,4.17,8.91,-0.93,-0.03,-0.02,-0.00,R
195,252,4,3,17,3.98,8.90,-0.84,-0.06,-0.06,0.02,R
187,253,4,1,18,4.10,8.84,-1.02,-0.00,-0.06,-0.02,R
195,254,3,2,17,3.93,8.87,-0.80,-0.02,-0.03,0.01,R
197,252,5,3,19,3.98,8.82,-0.90,-0.05,-0.06,-0.03,R
196,250,4,1,17,4.05,8.98,-0.97,-0.04,-0.08,-0.03,R
196,251,4,1,18,4.24,8.84,-0.98,-0.12,-0.58,-0.01,R
196,253,4,1,18,3.62,9.04,-1.36,-0.01,-0.10,-0.01,R
199,255,3,1,16,3.68,9.03,-1.22,-0.03,-0.04,0.00,R
196,252,4,2,17,3.78,9.02,-1.10,0.03,0.28,0.02,R
197,254,5,3,19,3.66,9.00,-1.07,0.02,0.35,0.04,R
198,256,5,1,17,4.25,8.87,-0.80,-0.01,0.09,-0.02,R
197,252,5,1,19,3.71,9.05,-0.94,0.12,0.56,0.04,R
195,253,3,2,17,4.39,8.79,-0.60,0.02,-0.05,0.00,R
197,252,5,0,16,4.35,8.88,-0.64,0.02,-0.07,-0.00,R
196,253,4,2,18,4.26,8.80,-0.86,-0.02,-0.12,-0.03,R
197,250,4,0,17,4.23,8.97,-0.57,-0.04,-0.05,-0.01,R
196,253,5,1,18,4.20,8.86,-0.84,-0.01,0.01,0.01,R
199,253,4,1,17,4.10,8.89,-0.75,-0.03,0.00,-0.00,R
169,114,1,1,16,-0.06,7.56,-5.27,0.00,-0.07,0.00,S
173,111,2,1,16,0.09,7.44,-5.35,0.03,0.04,-0.01,S
172,114,1,2,16,0.23,7.40,-5.41,0.01,0.04,-0.00,S
171,114,1,2,15,0.13,7.43,-5.38,-0.02,0.02,0.00,S
175,113,0,1,16,0.13,7.47,-5.32,-0.04,0.00,0.01,S
172,115,1,1,16,0.26,7.51,-5.22,0.02,-0.01,-0.00,S
171,116,0,2,15,0.10,7.43,-5.38,-0.02,0.01,-0.00,S
171,109,1,1,16,0.04,7.46,-5.45,-0.01,-0.07,-0.01,S
172,115,1,2,17,-0.05,7.51,-5.35,0.03,-0.02,-0.01,S
171,117,2,1,16,0.06,7.39,-5.45,0.01,-0.01,-0.01,S
172,114,1,1,18,0.15,7.36,-5.47,-0.03,-0.01,-0.01,S
172,115,0,2,15,0.20,7.45,-5.31,-0.03,-0.05,0.01,S
172,108,0,0,15,-0.00,7.47,-5.30,0.01,-0.03,-0.02,S
172,114,1,2,15,0.11,7.33,-5.45,-0.01,0.04,-0.02,S
173,116,1,1,15,0.09,7.37,-5.43,-0.05,-0.01,0.01,S
173,116,0,1,17,-0.09,7.44,-5.28,0.01,-0.03,0.01,S
172,114,1,2,15,0.10,7.44,-5.35,-0.02,-0.00,0.03,S
173,114,1,0,16,0.02,7.38,-5.47,-0.02,0.01,-0.00,S
172,115,1,1,16,0.04,7.36,-5.43,0.01,-0.05,0.00,S
173,115,0,2,16,0.13,7.27,-5.50,-0.02,0.01,0.00,S
171,116,0,1,17,0.19,7.31,-5.40,-0.05,-0.01,0.01,S
173,114,1,1,15,0.13,7.42,-5.43,-0.04,-0.06,0.01,S
174,116,1,1,16,0.08,7.39,-5.48,-0.05,0.02,0.00,S
170,116,0,3,16,0.05,7.37,-5.36,0.03,-0.04,0.00,S
172,116,1,1,17,0.09,7.44,-5.48,0.01,-0.02,-0.01,S
172,116,1,1,16,0.18,7.34,-5.36,-0.01,-0.02,-0.00,S
173,114,1,2,15,0.19,7.42,-5.48,-0.01,-0.06,-0.01,S
172,115,1,1,15,0.06,7.32,-5.41,0.00,-0.02,0.00,S
173,121,0,2,16,-0.03,7.32,-5.50,-0.02,-0.03,0.01,S
173,117,1,3,17,-0.04,7.38,-5.32,0.02,-0.02,0.01,S
173,115,1,2,16,0.21,7.24,-5.66,-0.06,-0.05,-0.01,S
172,115,2,2,16,0.11,7.35,-5.53,0.03,-0.05,0.00,S
174,116,1,2,17,0.19,7.22,-5.62,0.03,0.02,0.00,S
172,117,0,2,16,0.11,7.25,-5.61,-0.02,-0.01,0.02,S
173,116,2,2,18,0.16,7.30,-5.57,-0.03,-0.03,0.01,S
174,116,0,1,16,0.26,7.35,-5.49,0.01,-0.00,0.01,S
175,115,0,1,16,0.06,7.31,-5.42,-0.04,-0.02,-0.00,S
171,117,1,3,17,0.13,7.42,-5.49,-0.05,0.01,-0.01,S
174,116,1,1,17,0.16,7.37,-5.46,-0.05,-0.00,0.02,S
175,117,0,1,16,0.15,7.49,-5.42,-0.03,-0.04,-0.01,S
174,116,0,1,16,0.00,7.37,-5.57,-0.02,0.00,-0.00,S
174,117,2,1,16,0.06,7.37,-5.48,-0.01,-0.03,-0.02,S
174,117,1,1,16,0.04,7.46,-5.39,-0.03,-0.03,-0.00,S
173,115,2,1,16,0.10,7.35,-5.43,0.01,-0.05,0.01,S
175,117,1,1,16,0.11,7.38,-5.44,0.01,-0.02,0.01,S
177,117,1,2,18,0.17,7.34,-5.54,-0.02,-0.01,0.01,S
175,119,1,1,16,0.22,7.34,-5.51,-0.03,0.01,0.01,S
176,117,0,1,17,0.10,7.42,-5.39,0.02,-0.09,-0.01,S
174,118,1,3,17,0.06,7.31,-5.54,0.02,0.03,0.00,S
175,117,2,2,16,0.12,7.32,-5.52,-0.02,-0.05,0.01,S
176,117,1,3,16,0.13,7.32,-5.54,-0.02,0.00,0.01,S
176,120,0,1,16,0.11,7.32,-5.53,-0.00,-0.04,0.02,S
177,117,1,0,16,0.19,7.30,-5.55,-0.04,0.01,0.01,S
175,118,1,2,17,0.19,7.28,-5.53,-0.09,0.03,0.01,S
175,118,1,1,17,0.08,7.45,-5.47,-0.04,-0.04,0.01,S
175,119,1,2,16,0.06,7.25,-5.55,0.01,-0.04,0.00,S
176,118,1,2,16,0.01,7.45,-5.57,-0.01,-0.00,0.02,S
175,117,0,2,16,0.23,7.38,-5.50,-0.02,-0.05,-0.01,S
177,118,2,2,16,0.14,7.20,-5.58,-0.00,-0.00,0.01,S
177,120,1,2,18,0.25,7.38,-5.66,-0.01,-0.02,-0.00,S
176,123,0,2,16,0.08,7.21,-5.56,0.06,-0.06,0.02,S
177,118,2,1,16,0.21,7.15,-5.72,-0.07,-0.02,-0.00,S
177,120,0,1,16,0.06,7.49,-5.24,-0.20,-0.10,0.01,S
177,112,0,0,16,-0.07,7.72,-4.86,0.01,-0.09,-0.08,S
175,118,2,1,18,-0.11,7.59,-5.07,-0.17,0.08,0.03,S
180,121,1,1,15,0.00,8.18,-4.48,-0.35,-0.02,0.07,S
178,118,1,0,15,0.18,8.24,-4.31,-0.16,-0.07,0.00,S
178,118,1,2,17,0.00,8.33,-4.24,-0.02,-0.15,0.02,S
177,118,1,1,17,-0.18,8.22,-4.35,0.10,-0.14,0.02,S
178,119,0,1,16,-0.11,8.00,-4.54,-0.04,-0.01,-0.00,S
177,119,1,2,16,-0.19,7.90,-4.86,0.07,0.02,-0.05,S
179,119,1,0,16,-0.13,7.76,-4.83,0.06,-0.01,0.00,S
176,118,0,3,17,-0.02,7.71,-5.11,0.04,0.07,0.01,S
179,121,2,2,16,0.10,7.75,-5.03,-0.01,0.01,0.00,S
178,118,2,3,16,-0.08,7.70,-5.15,-0.01,-0.07,0.01,S
178,118,1,2,16,0.07,7.78,-4.88,-0.04,-0.03,0.02,S
179,118,1,1,19,0.73,7.82,-4.69,-0.22,0.14,0.08,S
182,118,1,2,17,0.39,8.09,-4.58,-0.02,-0.06,0.02,S
178,119,0,1,16,-0.25,8.09,-4.56,0.07,-0.18,0.02,S
178,120,1,1,16,-0.07,8.11,-4.40,-0.08,-0.00,0.02,S
180,118,1,0,17,0.52,8.18,-4.41,0.02,0.10,-0.00,S
177,118,1,3,16,0.98,7.89,-4.77,0.00,0.15,0.01,S
178,119,2,1,18,0.77,7.88,-4.92,-0.01,-0.05,-0.01,S
179,119,1,1,15,0.62,7.96,-4.65,-0.03,-0.05,0.00,S
177,119,1,0,16,0.73,8.11,-4.57,-0.08,0.00,-0.02,S
174,121,0,1,16,0.66,8.00,-4.65,0.01,-0.06,0.01,S
177,119,0,1,16,0.50,7.94,-4.71,-0.03,0.01,-0.01,S
178,119,1,1,17,0.64,8.01,-4.73,-0.11,0.03,-0.01,S
227,174,2,2,19,4.58,8.58,-1.36,-0.01,-0.01,0.05,T
228,175,3,3,17,4.56,8.51,-1.41,0.01,-0.02,0.01,T
226,174,2,2,16,4.63,8.50,-1.47,-0.03,-0.04,0.02,T
227,174,1,1,17,4.57,8.47,-1.36,-0.05,-0.03,0.00,T
228,169,1,1,17,4.62,8.51,-1.41,-0.02,-0.05,0.03,T
224,175,2,2,18,4.70,8.58,-1.40,-0.03,0.01,0.02,T
227,174,3,2,17,4.82,8.48,-1.47,-0.01,-0.01,0.00,T
228,175,1,1,17,4.74,8.56,-1.37,-0.03,-0.03,0.02,T
227,174,1,1,19,4.80,8.50,-1.42,-0.02,-0.04,-0.03,T
228,175,1,2,18,4.60,8.55,-1.38,-0.01,-0.02,0.01,T
225,174,2,3,18,4.72,8.46,-1.26,0.00,-0.01,0.04,T
230,175,2,1,19,4.86,8.34,-1.53,0.00,-0.02,0.01,T
228,176,2,3,18,4.65,8.49,-1.32,-0.08,-0.05,0.02,T
227,174,2,2,17,4.96,8.41,-1.49,0.01,-0.05,0.01,T
228,175,2,3,18,4.65,8.45,-1.43,-0.01,-0.04,0.01,T
228,175,3,3,19,4.77,8.46,-1.37,-0.02,-0.04,0.01,T
228,175,2,1,18,4.94,8.36,-1.46,-0.10,0.01,0.03,T
228,176,2,3,18,4.76,8.46,-1.23,-0.09,-0.05,0.02,T
228,175,1,1,16,4.89,8.44,-1.18,-0.01,-0.03,-0.01,T
228,175,2,1,16,4.92,8.44,-1.25,-0.06,-0.01,0.02,T
227,177,0,1,16,5.03,8.49,-1.23,-0.07,-0.05,-0.02,T
228,187,2,3,19,4.83,8.49,-1.07,0.00,-0.00,0.02,T
229,187,1,2,17,5.09,8.40,-1.32,0.04,-0.02,0.02,T
228,186,2,1,18,4.84,8.44,-1.09,-0.07,-0.02,-0.03,T
232,186,1,1,17,4.66,8.54,-1.14,-0.02,-0.03,0.03,T
228,186,1,2,17,5.02,8.49,-1.07,-0.02,-0.06,-0.01,T
228,186,1,3,16,4.75,8.38,-1.19,-0.07,-0.01,0.03,T
228,186,2,2,19,4.86,8.32,-1.41,-0.02,0.06,0.03,T
228,187,3,3,17,4.91,8.39,-1.00,-0.06,0.03,-0.01,T
223,187,1,1,17,4.68,8.58,-0.93,-0.12,-0.08,-0.01,T
228,187,0,3,19,4.82,8.63,-1.10,-0.03,-0.01,-0.00,T
228,186,1,1,18,4.79,8.60,-1.19,0.03,-0.02,-0.02,T
229,186,1,1,18,4.69,8.67,-1.07,-0.13,-0.08,-0.02,T
228,186,2,1,17,4.71,8.57,-1.09,-0.03,-0.08,-0.01,T
229,189,1,1,17,4.78,8.47,-1.06,0.01,-0.01,0.02,T
227,186,3,1,18,4.85,8.54,-1.09,-0.04,-0.02,0.02,T
228,188,1,3,17,4.68,8.37,-1.20,0.01,-0.10,0.02,T
228,186,1,1,17,4.79,8.48,-1.04,0.01,-0.01,0.06,T
228,186,2,3,18,4.90,8.28,-1.27,0.01,0.01,0.01,T
229,187,1,1,18,5.11,8.56,-1.03,0.04,0.05,-0.02,T
227,186,2,2,18,5.01,7.99,-1.70,0.07,0.05,0.03,T
227,190,3,1,18,5.03,8.40,-1.78,-0.01,-0.08,-0.00,T
228,187,1,2,18,4.64,8.37,-1.15,-0.06,-0.11,-0.01,T
228,187,2,3,17,4.48,8.32,-1.42,-0.03,-0.07,-0.04,T
227,188,1,1,17,4.86,8.23,-1.75,-0.04,-0.01,0.04,T
228,187,1,2,19,4.64,8.51,-1.39,-0.05,0.01,-0.04,T
226,187,0,2,18,4.79,8.31,-1.51,0.02,-0.04,0.08,T
228,189,1,1,18,4.74,8.60,-1.61,-0.02,-0.00,0.03,T
228,187,2,2,17,4.78,8.41,-1.59,-0.13,-0.04,-0.05,T
229,185,2,2,17,4.57,8.43,-1.33,0.01,-0.01,0.01,T
229,188,3,2,18,4.89,8.54,-1.43,-0.02,-0.00,-0.03,T
227,187,3,2,17,4.73,8.32,-1.42,-0.06,-0.03,0.01,T
237,187,1,2,18,4.72,8.43,-1.37,-0.03,-0.08,-0.00,T
227,187,1,2,18,4.68,8.42,-1.39,-0.04,0.01,-0.03,T
228,188,2,3,17,4.83,8.38,-1.49,-0.00,-0.03,-0.02,T
229,185,1,2,17,4.79,8.44,-1.44,0.02,-0.02,0.07,T
229,187,2,2,20,4.84,8.40,-1.35,0.02,-0.02,-0.02,T
228,188,1,1,16,4.89,8.37,-1.47,-0.01,0.00,0.00,T
227,186,1,3,18,4.71,8.35,-1.52,-0.01,-0.06,-0.00,T
228,186,1,2,19,4.78,8.37,-1.49,-0.01,0.02,0.04,T
228,188,1,2,17,4.92,8.29,-1.68,-0.02,0.01,0.02,T
228,186,1,1,19,4.75,8.57,-1.45,0.01,-0.03,0.02,T
228,186,1,2,19,4.83,8.36,-1.46,-0.02,-0.04,0.01,T
229,186,3,3,17,4.86,8.33,-1.63,-0.02,0.02,0.03,T
228,188,3,1,17,4.86,8.25,-1.61,-0.01,0.02,0.06,T
229,189,1,3,19,4.99,8.32,-1.44,-0.05,-0.06,-0.02,T
229,188,1,2,18,5.03,8.37,-1.53,-0.03,-0.01,0.02,T
229,188,1,2,18,4.91,8.30,-1.54,0.05,0.01,-0.01,T
228,189,2,3,17,4.99,8.20,-1.75,-0.03,-0.09,-0.03,T
229,191,3,2,17,4.62,8.45,-1.38,0.04,0.02,0.08,T
228,189,2,1,18,5.01,8.19,-1.23,-0.07,0.02,-0.04,T
229,190,1,2,18,4.65,8.53,-1.50,-0.02,0.08,-0.02,T
228,190,1,3,17,4.71,8.42,-1.29,-0.08,-0.09,0.03,T
229,190,2,2,17,4.67,8.22,-2.00,0.04,0.03,-0.03,T
228,192,2,2,18,4.89,8.50,-1.52,0.01,-0.21,0.06,T
230,190,1,1,18,4.84,8.44,-1.53,0.02,0.03,0.04,T
228,191,3,3,19,4.79,8.09,-1.74,-0.02,-0.05,-0.05,T
228,190,2,4,19,5.09,8.57,-1.70,-0.11,-0.00,0.03,T
227,189,2,2,18,4.86,8.30,-1.70,0.00,-0.10,-0.12,T
228,192,1,1,18,4.52,8.40,-1.85,-0.04,0.04,-0.03,T
229,200,1,2,17,4.64,8.49,-1.75,0.01,0.06,-0.01,T
228,190,2,1,18,4.59,8.32,-1.66,-0.11,-0.02,0.01,T
229,191,1,1,19,4.55,8.45,-1.61,0.01,0.02,0.00,T
229,190,3,2,17,4.65,8.63,-1.59,0.01,0.01,0.01,T
229,191,0,1,18,4.56,8.32,-1.70,-0.05,-0.06,-0.02,T
229,191,0,1,18,4.49,8.43,-1.49,-0.02,-0.02,-0.01,T
229,195,3,1,17,4.64,8.48,-1.78,0.02,-0.02,0.03,T
228,191,2,3,17,4.46,8.43,-1.67,0.02,-0.02,-0.01,T
229,191,1,2,18,4.70,8.42,-1.64,0.02,0.00,0.02,T
228,190,3,2,19,4.47,8.32,-1.68,-0.03,-0.04,-0.01,T
229,191,1,3,19,4.83,8.50,-1.70,-0.03,-0.02,0.00,T
228,190,1,3,18,4.47,8.37,-1.74,-0.01,-0.08,-0.02,T
229,190,2,2,19,4.58,8.47,-1.79,0.11,-0.06,-0.03,T
229,191,1,1,18,4.79,8.59,-1.78,-0.05,0.02,-0.01,T
229,191,2,2,19,4.43,8.34,-1.71,-0.03,-0.04,-0.05,T
228,191,2,1,18,4.58,8.49,-1.70,-0.05,-0.03,0.01,T
228,191,0,1,17,4.36,8.53,-1.65,-0.03,-0.01,-0.01,T
230,188,1,2,19,4.43,8.55,-1.67,-0.02,-0.06,0.03,T
229,192,1,2,19,4.53,8.49,-1.66,-0.02,-0.01,-0.01,T
229,190,1,2,18,4.64,8.55,-1.59,0.03,-0.01,0.02,T
226,191,0,2,18,4.36,8.47,-1.64,0.01,0.01,0.02,T
228,191,1,2,19,4.60,8.46,-1.72,-0.01,0.01,0.00,T
229,190,1,2,19,4.61,8.46,-1.90,-0.03,-0.02,0.02,T
228,189,1,1,17,4.58,8.48,-1.76,-0.02,-0.02,-0.01,T
229,187,3,1,18,4.58,8.47,-1.78,-0.00,-0.01,0.00,T
231,192,1,2,17,4.60,8.41,-1.83,-0.03,-0.00,-0.01,T
229,191,1,1,17,4.57,8.38,-1.68,-0.04,-0.02,0.01,T
229,190,1,2,18,4.53,8.37,-1.71,-0.05,-0.03,0.00,T
229,192,1,2,17,4.55,8.44,-1.69,-0.04,-0.01,-0.02,T
229,190,1,0,17,4.51,8.50,-1.78,-0.04,-0.02,0.00,T
229,190,1,2,18,4.37,8.50,-1.59,-0.01,-0.03,0.03,T
231,189,2,3,19,4.42,8.39,-1.69,-0.04,-0.04,-0.02,T
228,233,6,1,16,1.67,9.24,-1.31,0.15,-0.04,-0.03,U
228,232,5,1,18,1.64,9.19,-1.53,0.01,0.03,0.04,U
227,232,4,1,16,1.60,9.22,-1.54,-0.07,0.01,-0.00,U
228,233,6,2,18,1.87,9.55,-1.42,-0.04,-0.05,-0.02,U
228,233,5,1,17,1.82,9.70,-1.36,-0.05,-0.03,0.01,U
227,231,4,2,17,1.55,9.33,-1.56,-0.02,0.02,-0.03,U
228,232,4,1,18,1.81,8.99,-1.66,-0.02,0.03,0.06,U
228,232,4,1,17,1.69,9.39,-1.51,-0.03,-0.03,-0.01,U
228,232,4,1,18,1.64,9.52,-1.37,-0.09,-0.03,-0.01,U
227,231,4,1,18,1.72,9.47,-1.50,-0.01,-0.01,0.03,U
228,232,5,1,18,1.56,9.44,-1.49,-0.02,0.02,0.01,U
227,232,4,2,17,1.73,9.02,-1.44,-0.01,-0.02,-0.01,U
227,233,5,1,16,1.64,9.28,-1.42,-0.08,-0.05,-0.00,U
228,232,5,1,17,1.63,9.36,-1.47,-0.03,-0.02,0.00,U
226,232,4,1,18,1.54,9.34,-1.41,-0.10,-0.02,0.02,U
227,233,5,3,18,1.82,9.50,-1.40,-0.03,-0.00,0.01,U
228,233,5,2,18,1.65,9.61,-1.46,-0.03,0.01,-0.01,U
227,232,4,2,16,1.62,9.47,-1.36,0.06,-0.01,-0.01,U
227,239,5,0,16,1.67,9.32,-1.40,0.01,-0.01,-0.00,U
227,231,4,2,18,1.64,9.47,-1.46,-0.06,-0.04,-0.00,U
227,231,5,2,19,1.67,9.52,-1.41,-0.01,-0.03,-0.02,U
227,232,4,1,17,1.50,9.39,-1.31,0.02,-0.04,-0.01,U
227,231,6,2,18,1.55,9.35,-1.48,-0.04,-0.02,0.01,U
226,231,5,1,16,1.78,9.51,-1.44,-0.01,0.00,-0.01,U
229,232,3,1,17,1.62,9.33,-1.37,0.04,-0.04,-0.01,U
226,232,4,1,16,1.70,9.21,-1.43,0.05,-0.01,-0.01,U
226,232,4,1,16,1.58,9.32,-1.45,-0.01,-0.03,0.01,U
227,231,4,1,16,1.57,9.32,-1.48,-0.05,-0.03,0.02,U
226,232,4,3,17,1.53,9.46,-1.54,-0.05,0.01,0.01,U
228,231,5,1,17,1.66,9.45,-1.53,-0.04,-0.01,-0.01,U
228,232,5,3,17,1.81,9.62,-1.53,-0.08,-0.05,0.01,U
227,231,4,0,17,1.79,9.51,-1.36,0.06,-0.02,-0.01,U
228,232,5,2,18,1.69,9.29,-1.61,0.00,0.03,0.03,U
228,232,6,1,18,1.68,9.21,-1.39,0.13,0.01,0.01,U
226,232,4,3,18,1.77,9.13,-1.59,-0.07,0.02,0.01,U
227,231,6,1,17,1.82,9.76,-1.27,-0.02,-0.07,0.00,U
228,232,5,1,18,1.64,9.56,-1.27,0.07,-0.07,-0.01,U
227,231,5,2,17,1.59,9.29,-1.50,0.06,0.04,0.00,U
228,232,5,3,17,1.65,9.27,-1.76,-0.09,-0.02,0.00,U
228,231,4,2,18,1.60,9.61,-1.26,-0.04,0.01,-0.01,U
228,232,4,2,19,1.79,9.38,-1.35,0.05,-0.01,0.00,U
228,231,4,1,18,1.69,9.46,-1.39,0.05,-0.07,-0.00,U
228,232,5,2,19,1.61,9.46,-1.11,0.20,-0.05,-0.04,U
229,231,4,2,18,1.62,9.25,-2.27,0.05,-0.05,0.03,U
228,231,5,0,17,1.60,9.33,-1.96,-0.09,-0.02,0.02,U
228,232,5,1,18,0.80,9.69,-1.73,-0.10,-0.26,-0.00,U
228,232,4,2,18,1.50,9.35,-1.61,0.10,-0.11,-0.02,U
228,233,5,3,19,1.37,9.37,-1.61,0.06,0.25,0.01,U
228,232,4,1,17,1.53,9.34,-1.58,0.22,0.29,-0.02,U
227,231,5,3,17,1.63,9.18,-1.95,0.07,0.11,0.06,U
227,232,4,1,16,2.03,9.27,-2.07,-0.05,-0.01,0.00,U
228,231,4,1,19,2.00,9.14,-2.03,-0.03,-0.04,0.03,U
229,234,3,2,17,1.97,9.31,-1.84,-0.08,-0.07,-0.02,U
228,233,5,3,18,2.18,9.38,-1.97,-0.09,-0.10,-0.03,U
228,232,4,1,18,1.85,9.33,-1.89,0.06,-0.07,-0.03,U
226,231,4,0,18,1.70,9.30,-1.94,-0.04,-0.03,-0.04,U
227,232,4,1,18,1.82,9.33,-1.59,0.01,-0.01,-0.00,U
227,230,4,1,18,2.02,9.34,-1.69,-0.03,0.00,-0.04,U
229,233,4,2,17,1.71,9.16,-1.62,-0.02,-0.06,-0.07,U
228,231,5,1,17,1.75,9.25,-1.53,0.10,0.02,0.01,U
229,231,4,2,18,1.77,9.24,-1.88,0.10,0.02,0.02,U
228,231,5,1,18,1.90,9.31,-1.94,0.04,-0.04,0.01,U
229,232,3,1,17,1.56,9.13,-1.70,0.04,-0.04,-0.01,U
228,231,4,1,18,1.87,9.11,-1.93,0.00,0.05,0.03,U
228,232,4,1,18,1.80,9.22,-2.18,-0.03,0.01,0.03,U
227,230,4,2,18,1.69,9.04,-2.21,-0.10,0.09,0.04,U
226,236,4,2,18,1.78,9.03,-2.04,0.01,-0.02,0.01,U
227,231,5,2,18,1.95,9.21,-2.02,-0.01,-0.02,0.01,U
227,232,4,2,19,1.85,9.02,-2.18,0.01,-0.02,0.00,U
229,231,6,1,18,1.83,9.15,-2.14,-0.09,-0.04,0.01,U
226,231,4,2,18,1.92,9.28,-2.08,-0.05,-0.03,0.00,U
226,232,6,3,18,1.84,9.20,-2.08,0.00,-0.03,-0.04,U
226,231,4,1,16,2.01,9.12,-1.99,-0.02,-0.02,0.05,U
227,232,5,0,18,1.95,9.31,-2.23,0.00,0.00,-0.01,U
227,231,3,2,17,1.76,9.18,-2.09,0.01,0.01,-0.01,U
227,232,5,2,17,1.80,9.16,-2.12,-0.02,0.00,-0.01,U
227,231,4,0,18,1.83,9.22,-2.10,0.00,0.00,0.01,U
227,231,5,3,19,1.98,9.24,-2.06,-0.02,-0.03,0.00,U
227,231,5,0,18,1.87,9.34,-2.04,-0.07,-0.06,0.01,U
227,231,5,1,17,1.78,9.41,-1.99,0.03,-0.05,-0.01,U
226,232,4,1,18,1.76,9.31,-2.03,0.00,0.03,-0.01,U
228,232,4,1,18,1.82,9.39,-2.13,-0.01,-0.02,0.00,U
188,234,6,2,17,1.09,9.19,-1.60,-0.04,0.03,0.03,V
187,232,5,2,17,1.21,9.39,-1.65,0.04,0.05,0.03,V
189,240,5,2,17,1.36,9.26,-1.70,-0.07,0.02,-0.00,V
189,234,5,2,16,1.34,9.31,-1.72,-0.03,-0.00,0.01,V
189,233,5,0,16,1.23,9.33,-1.71,-0.02,-0.00,0.01,V
187,235,5,3,16,1.24,9.31,-1.66,-0.09,-0.03,0.01,V
189,235,5,1,17,1.32,9.57,-1.61,-0.05,-0.07,0.00,V
191,234,3,2,17,1.26,9.49,-1.74,-0.04,-0.06,-0.01,V
190,233,5,1,16,1.11,9.44,-1.72,0.00,-0.05,-0.02,V
188,234,6,1,18,1.26,9.55,-1.62,0.01,-0.04,-0.03,V
182,235,4,1,18,1.23,9.41,-1.79,0.02,-0.02,-0.01,V
189,235,4,1,16,1.16,9.40,-1.70,-0.00,0.01,0.01,V
189,234,5,1,17,1.33,9.33,-1.79,0.01,-0.00,0.01,V
190,235,4,1,16,1.15,9.32,-1.86,-0.00,0.03,0.01,V
190,235,5,3,17,1.30,9.32,-1.82,0.00,-0.02,0.01,V
190,233,5,1,16,1.23,9.35,-1.80,-0.01,-0.02,0.00,V
187,235,5,1,16,1.28,9.29,-1.85,-0.01,0.03,0.01,V
190,235,5,0,18,1.31,9.28,-1.83,-0.03,-0.02,0.02,V
189,234,4,1,17,1.13,9.37,-1.82,0.00,-0.04,-0.00,V
192,235,6,1,16,1.31,9.45,-1.74,0.03,-0.01,0.01,V
190,234,6,2,16,1.32,9.51,-1.83,-0.03,-0.02,0.00,V
191,234,5,1,17,1.29,9.40,-1.77,-0.01,0.02,-0.00,V
189,235,4,1,18,1.36,9.23,-1.82,0.01,-0.02,-0.02,V
190,234,5,1,17,1.37,9.28,-1.93,0.00,0.01,0.01,V
191,236,6,3,18,1.24,9.28,-1.85,-0.03,-0.04,0.03,V
190,234,6,1,17,1.26,9.34,-2.04,-0.12,-0.07,0.05,V
192,234,4,1,18,1.30,9.38,-1.94,-0.06,0.04,-0.00,V
191,233,5,2,16,1.46,9.34,-1.96,-0.04,0.00,-0.01,V
191,235,4,0,17,1.21,9.25,-2.01,-0.02,-0.03,0.00,V
191,235,5,1,16,1.36,9.30,-1.99,-0.03,0.01,0.00,V
191,231,4,2,16,1.37,9.35,-2.00,-0.01,-0.01,-0.01,V
191,236,4,1,17,1.29,9.44,-1.85,0.04,-0.08,-0.03,V
191,234,5,2,17,1.37,9.18,-2.15,-0.02,-0.05,0.01,V
191,233,6,1,16,1.15,9.27,-2.07,0.02,0.02,0.01,V
191,234,5,1,18,1.37,9.25,-2.08,-0.02,-0.06,-0.02,V
191,230,4,3,18,1.37,9.22,-2.05,-0.03,-0.04,0.00,V
191,235,5,1,17,1.28,9.22,-2.09,-0.02,0.00,-0.01,V
190,234,5,3,17,1.30,9.21,-2.07,-0.03,-0.02,0.01,V
191,235,4,1,17,1.17,9.13,-2.08,-0.02,-0.02,0.02,V
192,234,4,0,16,1.19,9.37,-2.02,-0.06,0.00,0.01,V
191,235,6,2,16,1.47,9.32,-1.95,-0.06,-0.05,0.00,V
192,235,5,1,18,1.20,9.32,-2.02,0.01,0.04,-0.00,V
191,234,5,2,17,1.28,9.22,-1.99,-0.04,-0.01,0.01,V
191,234,5,2,18,1.20,9.31,-2.01,-0.01,-0.02,0.01,V
193,234,6,3,19,1.40,9.27,-2.25,-0.03,-0.03,0.01,V
191,234,6,2,16,1.39,9.30,-2.16,-0.01,-0.03,-0.00,V
191,234,5,1,18,1.24,9.33,-2.05,0.02,0.04,-0.00,V
190,235,4,1,17,1.34,9.21,-2.10,-0.01,-0.01,0.01,V
191,235,4,2,18,1.45,9.20,-2.14,0.00,0.04,0.02,V
191,235,5,1,17,1.43,9.13,-2.04,-0.01,0.04,0.02,V
192,241,5,2,17,1.37,9.24,-2.13,-0.09,-0.03,0.02,V
191,236,5,1,17,1.36,9.25,-1.95,-0.03,0.01,0.01,V
192,234,4,1,17,1.23,9.37,-1.96,-0.04,-0.04,-0.01,V
192,235,5,2,18,1.35,9.45,-1.79,0.05,-0.01,-0.02,V
192,235,6,2,17,1.50,9.20,-1.99,-0.00,0.03,-0.02,V
194,234,5,1,17,1.52,9.40,-1.86,-0.07,-0.00,-0.00,V
191,235,4,1,16,1.30,9.40,-1.84,0.12,-0.05,0.00,V
194,235,5,1,17,1.19,9.37,-2.05,0.00,-0.02,-0.01,V
192,235,5,1,18,1.33,9.26,-2.11,-0.00,-0.03,0.01,V
191,236,3,2,17,1.28,9.22,-2.14,-0.01,0.01,0.02,V
193,234,4,0,17,1.26,9.27,-2.04,-0.07,-0.06,0.01,V
191,234,5,3,19,1.21,9.31,-2.08,-0.03,-0.03,0.02,V
192,234,5,1,18,1.26,9.32,-1.96,-0.03,-0.03,0.01,V
192,234,5,1,19,1.45,9.33,-2.00,-0.02,-0.00,0.00,V
192,234,4,1,17,1.54,9.32,-2.04,0.01,-0.04,-0.04,V
192,234,4,0,17,1.44,9.25,-2.05,-0.04,0.00,-0.01,V
190,234,4,1,16,1.44,9.28,-1.80,0.02,0.03,-0.02,V
192,237,4,1,16,1.29,9.23,-1.91,-0.01,-0.04,-0.00,V
192,234,5,1,17,1.36,9.36,-1.87,-0.01,0.03,0.02,V
193,236,4,1,17,1.29,9.25,-2.01,-0.03,0.03,0.02,V
193,235,6,2,16,1.34,9.23,-2.09,0.01,-0.01,0.03,V
192,234,3,2,17,1.28,9.29,-2.09,-0.02,0.01,0.01,V
193,236,5,2,17,1.32,9.27,-2.01,-0.03,-0.01,0.01,V
193,234,5,0,17,1.30,9.26,-2.12,-0.06,-0.05,-0.00,V
193,235,4,1,17,1.31,9.29,-2.06,-0.05,-0.02,0.00,V
188,234,5,2,17,1.49,9.40,-1.96,-0.05,-0.02,0.06,V
192,234,6,2,19,1.32,9.29,-2.04,-0.02,-0.03,0.01,V
192,235,5,1,17,1.31,9.30,-2.09,-0.01,0.00,-0.01,V
191,234,4,2,17,1.32,9.28,-2.03,-0.02,-0.07,-0.01,V
193,235,6,2,17,1.11,9.34,-2.07,-0.05,-0.02,-0.01,V
193,233,5,3,18,1.28,9.18,-1.98,-0.03,0.06,0.03,V
193,236,5,1,18,1.16,9.23,-2.08,-0.01,0.05,-0.01,V
192,235,4,1,17,1.30,9.18,-2.13,-0.02,-0.04,0.01,V
194,235,4,2,18,1.23,9.33,-2.06,-0.08,-0.03,-0.00,V
193,235,6,3,18,1.37,9.31,-2.12,-0.01,-0.05,0.00,V
193,233,5,0,18,1.26,9.35,-1.96,-0.05,0.01,-0.01,V
193,235,5,1,17,1.32,9.28,-1.96,-0.00,-0.06,0.02,V
191,234,4,5,13,-0.00,9.36,-1.73,0.08,0.04,0.01,W
193,235,6,6,14,0.17,9.50,-1.81,-0.01,0.09,-0.01,W
193,235,5,5,14,0.22,9.31,-1.95,0.02,0.07,0.03,W
194,244,5,6,13,0.22,9.45,-1.91,-0.04,-0.01,-0.06,W
193,235,5,6,13,0.31,9.26,-2.04,0.00,-0.01,0.03,W
193,236,5,5,13,0.36,9.35,-2.06,-0.01,0.01,0.02,W
192,237,5,4,12,-0.09,9.36,-2.03,-0.12,0.02,0.02,W
199,236,4,5,15,0.60,9.27,-1.75,-0.02,0.05,0.01,W
200,235,4,4,13,0.12,9.44,-1.83,0.00,-0.13,0.02,W
192,232,5,4,13,0.22,9.37,-2.04,0.04,-0.00,0.02,W
192,236,4,4,14,0.55,9.44,-1.83,-0.01,-0.02,-0.00,W
192,237,5,5,12,0.37,9.35,-2.01,-0.02,-0.02,-0.01,W
192,236,4,5,14,0.30,9.35,-2.06,-0.02,0.05,0.04,W
192,236,4,5,13,0.34,9.42,-1.85,0.01,0.05,0.01,W
193,237,5,4,13,0.28,9.39,-2.00,-0.01,-0.02,-0.03,W
193,237,5,4,14,0.32,9.32,-1.96,-0.01,-0.04,-0.01,W
193,237,3,6,13,0.26,9.23,-2.14,-0.00,0.02,0.00,W
193,237,7,3,15,0.53,9.36,-1.98,-0.07,-0.00,0.07,W
192,236,4,5,14,0.31,9.44,-1.80,0.01,-0.03,-0.03,W
192,236,5,6,15,0.44,9.25,-2.08,0.02,0.02,0.00,W
194,231,5,6,12,0.44,9.27,-2.08,-0.03,0.01,0.03,W
193,235,5,5,14,0.42,9.41,-2.10,-0.09,-0.02,0.03,W
194,236,5,5,14,0.46,9.49,-1.79,-0.00,0.01,-0.01,W
192,236,4,5,14,0.51,9.27,-2.04,-0.01,-0.06,-0.02,W
193,235,6,5,14,0.24,9.35,-2.05,-0.03,0.04,0.02,W
193,236,5,5,15,0.53,9.51,-1.99,-0.08,-0.05,0.08,W
196,236,4,5,14,0.56,9.51,-1.93,-0.04,-0.06,-0.04,W
195,236,5,5,14,0.39,9.37,-1.91,0.00,-0.00,0.01,W
194,235,4,5,14,0.54,9.30,-1.82,-0.02,0.02,0.02,W
195,236,4,5,14,0.47,9.45,-1.83,-0.05,-0.01,0.02,W
195,236,4,4,15,0.57,9.46,-1.73,-0.02,-0.01,0.00,W
194,239,7,5,14,0.52,9.47,-1.77,-0.00,-0.01,0.03,W
195,236,4,5,13,0.52,9.41,-1.71,0.01,-0.01,0.01,W
193,236,5,5,15,0.51,9.34,-1.76,0.05,-0.01,-0.00,W
194,237,5,5,14,0.60,9.40,-1.76,0.03,0.03,-0.01,W
192,236,4,6,14,0.54,9.39,-1.81,-0.01,-0.07,0.00,W
194,237,5,6,15,0.54,9.39,-1.87,-0.03,-0.04,0.02,W
194,238,5,4,15,0.68,9.39,-1.93,-0.01,0.01,0.01,W
194,237,6,5,14,0.64,9.53,-1.88,0.01,-0.01,-0.00,W
194,236,5,4,14,0.76,9.27,-1.94,0.06,0.01,0.00,W
191,236,4,5,14,0.75,9.33,-1.99,-0.07,-0.06,0.01,W
194,235,4,6,14,0.64,9.43,-1.94,-0.04,-0.02,-0.01,W
197,237,5,4,14,0.74,9.43,-1.83,-0.06,0.01,0.02,W
195,236,5,6,14,0.72,9.44,-1.83,0.07,-0.09,0.00,W
196,236,6,5,15,0.67,9.30,-1.88,0.04,0.09,-0.03,W
197,237,4,5,15,0.55,9.32,-1.85,0.12,0.57,0.02,W
196,233,5,6,15,1.22,9.47,-1.93,0.06,0.25,0.03,W
197,236,5,4,14,0.92,9.30,-2.26,0.01,0.10,0.02,W
197,237,4,4,14,1.27,9.08,-2.36,-0.01,0.06,0.00,W
197,235,6,5,14,2.04,8.84,-2.61,-0.26,-0.41,0.02,W
198,236,6,6,15,1.37,8.99,-2.14,0.04,-0.09,-0.02,W
197,238,5,7,15,0.64,9.41,-2.02,-0.09,-0.13,-0.01,W
196,236,4,5,15,1.25,9.04,-2.34,-0.03,-0.16,0.00,W
196,232,4,4,14,1.00,9.31,-2.26,-0.01,-0.17,-0.02,W
198,237,5,5,15,0.35,9.36,-2.02,-0.06,-0.14,-0.06,W
197,236,4,4,15,0.22,9.31,-1.96,0.02,0.08,-0.01,W
196,237,6,5,16,0.63,9.28,-1.95,0.08,0.12,-0.03,W
194,237,5,5,15,0.27,9.41,-2.04,0.04,0.14,0.04,W
197,235,5,4,14,0.57,9.37,-1.93,-0.07,-0.05,0.00,W
197,229,4,5,14,0.63,9.32,-2.12,-0.05,-0.04,0.02,W
197,236,5,5,15,0.47,9.41,-2.00,-0.03,-0.08,-0.00,W
197,236,4,5,16,0.63,9.17,-2.25,-0.09,0.08,0.05,W
195,237,5,4,13,0.76,9.42,-1.78,-0.02,-0.01,0.03,W
197,236,5,5,15,0.74,9.50,-2.07,-0.02,-0.07,-0.02,W
196,236,4,5,15,0.70,9.34,-1.84,-0.01,-0.02,-0.02,W
203,237,4,6,14,0.76,9.37,-1.97,0.03,-0.07,0.01,W
199,189,0,1,16,4.55,8.23,-2.37,-0.06,-0.04,0.01,X
198,189,0,1,16,4.45,8.31,-2.24,-0.04,-0.05,0.00,X
200,191,1,1,17,4.50,8.33,-2.21,-0.09,-0.02,0.01,X
200,190,1,1,17,4.45,8.41,-2.09,-0.03,-0.04,-0.01,X
199,191,3,3,16,4.40,8.38,-2.11,0.03,-0.00,0.00,X
199,194,0,1,17,4.55,8.26,-2.20,0.03,-0.07,0.01,X
200,193,2,2,17,4.47,8.27,-2.21,-0.04,-0.05,-0.01,X
200,196,1,0,17,4.35,8.28,-2.30,0.02,-0.03,-0.00,X
200,193,1,0,17,4.46,8.26,-2.33,0.01,-0.03,0.04,X
200,193,2,2,16,4.44,8.37,-2.15,-0.04,0.01,-0.02,X
200,192,2,2,18,4.69,8.25,-2.36,0.02,0.01,0.02,X
201,194,3,1,16,4.54,8.25,-2.29,0.02,0.00,0.03,X
201,196,1,2,17,4.71,8.12,-2.26,-0.03,0.03,0.00,X
196,196,2,1,17,4.80,8.26,-2.30,0.02,0.01,0.00,X
202,197,2,3,16,4.58,8.09,-2.30,-0.02,-0.04,-0.02,X
200,196,0,0,16,4.53,8.26,-2.24,-0.01,0.01,-0.01,X
201,205,0,1,16,4.70,8.10,-2.34,-0.04,-0.02,0.03,X
201,197,0,2,16,4.66,8.21,-2.21,-0.05,-0.01,-0.01,X
202,196,2,3,18,4.61,8.28,-2.30,-0.04,-0.01,0.01,X
203,197,1,1,18,4.63,8.21,-2.30,0.01,0.01,-0.01,X
202,197,0,1,16,4.57,8.23,-2.32,0.01,0.02,-0.00,X
201,197,4,2,18,4.60,8.23,-2.28,-0.01,0.03,0.01,X
202,196,0,2,18,4.71,8.26,-2.26,-0.06,-0.02,0.02,X
204,196,2,3,16,4.59,8.29,-2.24,0.00,-0.04,0.02,X
205,196,0,0,17,4.57,8.21,-2.25,0.03,0.03,-0.02,X
203,194,1,0,17,4.64,8.22,-2.29,-0.02,-0.04,0.01,X
203,196,1,2,16,4.56,8.25,-2.25,-0.02,0.01,-0.00,X
202,197,1,1,17,4.63,8.24,-2.33,-0.02,-0.02,0.01,X
202,196,2,1,16,4.48,8.35,-2.30,0.02,-0.01,-0.01,X
202,194,1,1,16,4.57,8.13,-2.25,-0.01,-0.01,0.02,X
203,189,1,2,16,4.64,8.25,-2.27,-0.05,-0.01,0.00,X
205,195,1,1,17,4.64,8.20,-2.38,0.01,-0.00,-0.01,X
202,196,2,3,16,4.74,8.05,-2.34,0.03,-0.07,-0.10,X
203,196,1,1,17,4.34,8.18,-2.38,-0.03,-0.01,-0.01,X
204,196,2,3,17,4.66,8.26,-2.34,-0.03,0.03,0.01,X
202,196,0,1,18,4.49,8.22,-2.36,-0.00,-0.04,0.01,X
204,197,1,1,17,4.38,8.36,-2.18,-0.10,-0.03,-0.00,X
204,196,1,1,16,4.57,8.39,-2.24,-0.07,-0.04,0.00,X
204,199,1,2,16,4.36,8.39,-2.23,-0.01,-0.08,-0.01,X
209,196,1,1,16,4.52,8.29,-2.19,-0.03,-0.03,0.01,X
204,196,1,1,17,4.43,8.37,-2.17,-0.04,-0.08,-0.00,X
203,199,1,2,16,4.53,8.40,-2.12,-0.02,-0.04,-0.00,X
204,195,1,2,17,4.47,8.43,-2.18,-0.03,0.01,0.02,X
205,195,2,1,18,4.44,8.37,-2.21,-0.02,-0.05,0.00,X
207,195,1,1,17,4.47,8.37,-2.27,0.00,0.05,-0.02,X
204,196,2,2,18,4.58,8.39,-2.15,-0.01,-0.01,0.01,X
206,197,2,1,18,4.29,8.34,-2.13,-0.01,-0.02,-0.02,X
197,198,2,2,18,4.58,8.31,-2.33,-0.00,0.02,0.01,X
205,196,1,1,18,4.47,8.31,-2.27,-0.00,0.03,-0.01,X
207,196,1,2,17,4.43,8.24,-2.26,-0.02,0.05,0.00,X
203,196,1,1,17,4.47,8.33,-2.32,-0.00,0.05,0.00,X
205,197,2,2,18,4.35,8.37,-2.19,0.03,0.05,-0.00,X
205,199,2,2,16,4.45,8.29,-2.32,-0.04,0.01,0.00,X
207,195,2,2,18,4.41,8.28,-2.33,-0.04,-0.05,0.01,X
205,196,1,1,15,4.30,8.37,-2.26,-0.00,0.01,0.03,X
204,197,0,2,17,4.35,8.40,-2.16,-0.00,-0.02,-0.00,X
206,198,1,1,17,4.55,8.34,-2.27,-0.04,-0.01,0.01,X
207,197,1,1,16,4.40,8.35,-2.38,-0.02,-0.00,-0.01,X
205,196,1,2,17,4.36,8.30,-2.31,-0.06,-0.05,0.00,X
205,196,1,0,16,4.37,8.43,-2.28,-0.05,-0.07,-0.00,X
204,196,0,2,17,4.37,8.37,-2.28,-0.01,-0.04,0.02,X
204,195,1,1,17,4.16,8.37,-2.18,-0.02,-0.02,0.00,X
206,196,2,2,18,4.29,8.34,-2.19,-0.01,0.03,-0.03,X
205,196,1,2,17,4.54,8.31,-2.28,-0.05,0.06,-0.02,X
205,198,1,1,17,4.29,8.40,-2.22,-0.09,-0.01,0.03,X
205,197,2,1,18,4.41,8.33,-2.35,-0.04,-0.01,-0.02,X
205,196,0,1,18,4.27,8.43,-2.24,-0.03,-0.01,-0.01,X
207,198,2,3,17,4.34,8.40,-2.21,0.00,-0.03,0.00,X
206,196,1,2,17,4.20,8.39,-2.26,-0.02,-0.01,0.00,X
241,123,1,1,28,2.78,9.54,-0.24,-0.21,-0.02,0.04,Y
241,126,2,2,29,2.65,9.70,0.27,-0.13,-0.12,0.06,Y
242,126,1,2,28,2.66,9.42,0.03,0.09,-0.02,0.07,Y
241,126,1,2,28,2.79,9.38,-0.10,0.13,-0.09,-0.01,Y
241,127,3,1,28,3.04,9.17,-0.20,-0.03,0.04,0.02,Y
240,128,2,2,29,2.82,9.59,-0.24,0.09,-0.05,-0.01,Y
243,133,2,1,29,2.93,9.17,-0.42,0.12,0.02,-0.01,Y
241,132,2,3,29,2.85,9.26,-0.71,0.07,-0.07,0.01,Y
241,130,1,1,28,2.68,9.30,-1.01,0.05,-0.03,-0.04,Y
238,131,2,3,28,2.60,9.50,-0.83,-0.08,-0.04,0.01,Y
241,132,2,3,30,2.55,9.42,-0.92,0.04,-0.02,0.02,Y
242,134,1,2,27,2.60,9.21,-1.02,-0.09,0.04,0.01,Y
240,132,3,2,28,2.68,9.59,-0.62,-0.06,-0.09,0.00,Y
243,132,1,1,28,2.83,9.10,-0.82,0.02,0.09,0.09,Y
241,133,2,2,30,2.89,8.96,-0.96,0.21,0.04,0.10,Y
241,137,2,1,30,2.60,9.00,-1.11,-0.06,0.05,0.01,Y
240,136,2,3,27,2.78,9.45,-0.70,0.06,-0.01,0.01,Y
241,136,2,2,29,2.83,9.48,-0.51,-0.21,0.00,-0.06,Y
243,135,2,2,29,2.94,9.62,-0.26,-0.14,0.01,-0.03,Y
240,134,2,2,28,2.67,9.47,-0.32,-0.02,-0.01,0.03,Y
243,136,2,2,29,2.41,9.60,-0.18,0.06,-0.04,0.03,Y
242,136,1,2,29,2.49,9.64,0.01,0.06,0.05,0.06,Y
241,135,2,2,29,2.86,9.51,-0.25,-0.03,0.00,-0.01,Y
241,136,2,2,27,2.67,9.31,-0.27,0.04,0.02,0.01,Y
241,136,3,3,29,2.81,9.36,-0.25,-0.05,0.04,0.01,Y
240,137,2,3,28,2.91,9.42,-0.27,-0.06,-0.03,0.02,Y
240,136,2,2,29,2.89,9.22,-0.27,-0.04,0.04,0.01,Y
240,138,2,2,28,2.94,9.64,-0.34,-0.01,-0.09,-0.02,Y
240,136,2,2,28,2.99,9.33,-0.33,-0.05,-0.00,0.03,Y
241,139,1,2,28,2.91,9.66,-0.10,-0.02,-0.10,-0.02,Y
241,138,1,2,29,2.66,9.49,-0.39,-0.04,-0.00,0.03,Y
241,138,2,2,29,2.96,9.39,-0.26,-0.03,-0.07,-0.04,Y
241,137,2,3,30,2.94,9.36,-0.42,0.01,-0.04,0.01,Y
241,140,3,3,29,2.85,9.39,-0.42,-0.12,0.01,-0.04,Y
240,138,2,1,26,2.70,9.50,-0.32,-0.01,-0.06,0.01,Y
240,139,2,1,28,3.04,9.19,-0.45,-0.01,-0.01,0.01,Y
240,138,2,3,28,2.67,9.49,-0.39,-0.07,-0.01,0.01,Y
240,138,2,2,29,2.83,9.22,-0.45,0.03,-0.03,0.03,Y
237,138,2,2,29,2.85,9.48,-0.14,-0.03,-0.01,0.01,Y
241,138,1,2,28,2.92,9.43,-0.26,-0.08,-0.03,-0.02,Y
241,139,2,4,29,2.80,9.43,-0.22,0.04,0.01,-0.05,Y
241,139,2,2,27,3.03,9.25,-0.34,-0.01,-0.01,-0.00,Y
240,139,3,3,29,2.99,9.48,-0.34,-0.06,-0.05,-0.00,Y
241,140,3,3,30,2.73,9.57,-0.18,0.17,-0.06,-0.02,Y
240,141,3,2,29,2.97,9.47,-0.46,0.04,-0.02,0.05,Y
240,140,2,1,28,2.76,9.22,-0.56,-0.01,0.02,0.03,Y
240,140,3,1,27,3.08,9.55,-0.34,-0.08,-0.02,0.00,Y
240,140,2,1,28,2.96,9.43,-0.54,0.00,-0.13,0.02,Y
242,143,3,3,28,3.12,9.26,-0.53,0.00,0.02,0.01,Y
241,142,2,1,29,2.79,9.73,-0.37,-0.09,-0.06,-0.04,Y
241,141,2,3,29,2.68,9.47,-0.32,0.04,0.04,-0.05,Y
240,140,1,2,28,2.78,9.21,-0.36,0.13,0.09,0.04,Y
238,140,1,1,28,3.05,9.46,-0.33,-0.11,-0.05,-0.04,Y
241,142,2,4,27,2.93,9.36,-0.25,-0.10,-0.03,0.06,Y
238,143,3,3,27,2.86,9.45,-0.38,-0.07,-0.04,-0.02,Y
238,143,3,1,28,2.81,9.47,-0.31,-0.00,-0.05,0.03,Y
241,141,1,2,29,3.04,9.10,-0.34,-0.00,0.02,0.05,Y
238,143,3,1,27,3.03,9.44,-0.25,-0.06,0.02,-0.03,Y
241,142,3,3,27,2.89,9.56,-0.14,0.00,0.01,0.00,Y
240,141,2,1,28,2.75,9.21,-0.15,0.03,0.07,-0.03,Y
240,141,3,3,29,3.07,9.41,-0.41,0.02,0.01,0.03,Y
240,142,1,1,28,2.71,9.87,-0.38,-0.05,-0.07,0.01,Y
241,143,3,2,29,2.68,9.52,-0.47,-0.02,0.01,0.03,Y
242,142,1,2,28,3.04,9.46,-0.26,-0.06,-0.04,-0.00,Y
240,142,2,2,28,2.73,9.47,-0.29,0.06,-0.00,-0.05,Y
241,144,2,2,28,2.82,9.34,-0.44,0.04,-0.06,0.01,Y
241,143,3,3,28,2.72,9.49,-0.42,-0.03,-0.08,0.00,Y
241,143,3,1,27,2.74,9.45,-0.43,0.06,-0.03,-0.00,Y
240,140,2,3,29,2.84,9.39,-0.38,-0.11,0.01,0.02,Y
240,143,3,2,28,2.94,9.37,-0.63,0.00,-0.01,0.01,Y
240,142,2,2,28,3.06,9.31,-0.48,0.02,-0.01,-0.01,Y
242,142,2,3,28,3.06,9.31,-0.58,-0.07,-0.02,-0.02,Y
239,142,3,3,28,2.94,9.43,-0.34,-0.03,-0.04,0.00,Y
240,144,1,2,28,2.91,9.48,-0.39,-0.05,-0.09,0.00,Y
241,138,2,1,28,2.68,9.35,-0.53,-0.03,0.05,-0.05,Y
240,143,3,2,28,2.71,9.56,-0.36,-0.09,-0.04,-0.03,Y
241,144,1,2,27,2.59,9.45,-0.37,-0.01,-0.05,0.03,Y
240,143,2,3,29,2.82,9.42,-0.43,-0.03,-0.02,-0.03,Y
239,144,2,1,28,2.89,9.73,-0.13,-0.12,-0.06,-0.01,Y
241,144,2,2,29,2.39,9.63,-0.28,-0.11,-0.04,0.03,Y
241,144,3,3,27,2.58,9.39,-0.31,0.06,0.03,-0.05,Y
239,145,2,2,27,2.97,9.24,-0.37,-0.01,-0.03,-0.01,Y
240,144,2,2,28,2.78,9.60,-0.20,-0.07,-0.01,-0.02,Y
241,144,2,2,27,2.78,9.55,-0.25,-0.04,-0.03,-0.00,Y
240,144,2,2,30,2.94,9.23,-0.45,-0.02,0.05,0.01,Y
241,144,2,3,28,2.83,9.49,-0.28,-0.04,-0.10,0.00,Y
240,144,2,2,28,2.89,9.51,-0.17,0.01,-0.00,0.01,Y
241,145,3,3,28,3.25,9.31,-0.09,-0.03,0.05,0.08,Y
240,144,2,2,28,2.84,9.47,-0.04,-0.08,-0.05,0.04,Y
240,144,2,2,28,2.97,9.42,-0.34,-0.05,-0.03,-0.02,Y
241,145,2,2,29,2.75,9.61,-0.29,-0.02,0.03,-0.02,Y
240,143,2,3,29,2.72,9.49,-0.25,-0.00,-0.04,-0.01,Y
240,144,2,2,29,2.87,9.39,-0.17,0.08,0.02,0.02,Y
240,145,3,3,27,2.85,9.40,-0.21,-0.04,-0.01,-0.01,Y
240,142,2,2,28,3.01,9.41,-0.20,-0.02,0.00,-0.00,Y
241,144,2,3,29,2.85,9.33,-0.14,0.00,0.02,0.00,Y
240,147,2,3,28,2.97,9.32,-0.21,0.01,0.01,0.01,Y
240,144,1,2,28,2.96,9.51,-0.11,-0.02,-0.00,0.01,Y
240,144,2,2,28,2.66,9.50,-0.22,0.04,-0.06,-0.00,Y
241,144,3,2,27,2.82,9.50,-0.32,-0.04,-0.02,-0.01,Y
239,145,2,2,28,2.66,9.59,-0.44,0.03,-0.03,-0.03,Y
241,145,3,2,28,2.61,9.47,-0.19,-0.01,-0.03,0.00,Y
240,145,2,3,27,2.85,9.21,-0.53,-0.07,0.02,0.03,Y
240,144,2,2,26,2.74,9.56,-0.22,-0.06,-0.08,-0.01,Y
241,146,3,3,29,2.66,9.49,-0.33,0.05,-0.02,0.02,Y
240,144,2,2,29,2.54,9.44,-0.38,0.06,0.05,0.02,Y
241,145,1,2,28,2.80,9.47,-0.40,-0.08,-0.02,-0.03,Y
241,144,2,2,28,2.54,9.33,-0.24,-0.01,-0.03,0.02,Y
185,234,2,2,22,-0.16,1.53,-8.80,-0.03,-0.01,0.02,Z
188,231,3,2,21,0.12,1.60,-8.50,-0.04,-0.11,0.01,Z
186,231,3,3,22,-0.21,1.19,-8.71,0.04,-0.20,0.10,Z
176,232,2,3,20,-0.46,1.35,-8.71,0.04,-0.06,-0.01,Z
188,228,3,2,22,-0.69,0.95,-9.08,0.01,-0.06,0.00,Z
186,232,2,2,21,-0.33,1.31,-8.66,-0.02,-0.05,0.01,Z
186,233,2,2,20,-0.32,1.13,-8.67,0.06,-0.00,-0.00,Z
188,231,3,2,21,-0.15,1.06,-8.74,-0.05,0.02,-0.00,Z
187,232,4,3,21,-0.11,1.13,-8.70,-0.05,-0.10,0.05,Z
188,232,3,2,21,-0.38,1.15,-8.80,-0.08,-0.02,0.00,Z
189,232,3,3,21,-0.28,1.23,-8.65,-0.06,-0.02,0.06,Z
188,230,2,2,20,-0.52,1.25,-8.64,0.06,-0.13,0.05,Z
190,233,3,3,20,-0.29,1.00,-8.86,-0.01,0.10,-0.02,Z
189,233,2,3,22,-0.08,1.13,-8.79,-0.09,-0.01,0.05,Z
183,233,2,4,21,-0.45,1.51,-8.57,0.02,-0.09,0.01,Z
188,231,3,2,21,-0.38,1.39,-8.66,-0.01,0.04,-0.03,Z
186,232,2,3,21,-0.15,1.36,-8.72,-0.00,-0.03,0.02,Z
188,236,3,4,21,-0.45,1.38,-8.71,0.05,-0.03,-0.00,Z
190,234,3,2,21,-0.20,1.34,-8.79,-0.07,0.04,-0.02,Z
188,234,3,3,20,-0.16,1.46,-8.68,-0.07,-0.03,0.01,Z
190,232,3,2,21,-0.40,1.41,-8.68,0.08,-0.08,-0.01,Z
189,232,3,3,21,-0.30,1.25,-8.74,-0.03,0.03,-0.04,Z
189,233,2,2,21,-0.17,1.35,-8.77,-0.06,-0.02,0.02,Z
191,232,4,2,22,-0.28,1.36,-8.67,0.00,-0.06,0.00,Z
188,233,3,3,21,-0.46,1.30,-8.68,0.07,-0.05,0.00,Z
187,232,2,3,22,-0.35,1.22,-8.74,0.02,0.03,-0.02,Z
189,233,3,3,21,-0.46,1.27,-8.85,-0.18,-0.06,0.05,Z
189,232,3,3,21,-0.24,1.50,-8.55,-0.07,-0.07,0.04,Z
190,232,3,2,21,-0.41,1.36,-8.57,0.06,-0.07,-0.02,Z
189,232,3,3,22,-0.38,1.20,-8.79,0.03,0.07,-0.06,Z
189,232,2,2,20,-0.10,1.15,-8.70,-0.04,0.05,-0.00,Z
190,232,4,2,22,-0.12,1.30,-8.62,-0.04,-0.06,0.02,Z
188,231,2,3,22,-0.47,1.36,-8.66,-0.01,-0.12,0.02,Z
190,231,3,3,21,-0.31,1.09,-8.84,0.02,0.08,-0.04,Z
186,232,3,4,21,-0.39,1.21,-8.85,0.01,-0.05,0.02,Z
188,232,2,2,20,-0.36,1.18,-8.78,-0.03,0.01,-0.02,Z
189,233,3,4,22,-0.33,1.23,-8.78,0.01,-0.04,0.00,Z
190,231,2,3,23,-0.36,1.31,-8.69,0.02,0.04,-0.03,Z
189,232,2,3,22,-0.30,1.18,-8.76,-0.01,0.09,-0.04,Z
189,231,2,2,21,-0.14,1.19,-8.74,-0.01,-0.02,0.02,Z
189,232,3,3,23,-0.22,1.15,-8.80,-0.03,-0.04,0.01,Z
189,231,1,2,21,-0.43,1.13,-8.80,-0.03,-0.04,0.02,Z
191,232,2,2,21,-0.31,1.11,-8.95,-0.02,0.02,-0.00,Z
191,233,4,3,22,-0.22,1.18,-8.58,-0.02,-0.03,0.03,Z
190,232,3,3,21,-0.42,1.21,-8.78,-0.02,-0.05,0.03,Z
191,234,4,3,23,-0.32,1.04,-8.93,-0.00,0.02,-0.05,Z
191,232,2,4,21,-0.24,1.06,-8.86,-0.01,0.02,-0.01,Z
189,233,2,3,20,-0.40,1.12,-8.79,-0.02,-0.08,0.01,Z
191,234,4,3,21,-0.40,1.07,-8.82,0.00,-0.01,-0.00,Z
190,232,2,2,21,-0.31,1.19,-8.78,-0.03,0.02,-0.02,Z
191,233,4,2,21,-0.34,1.23,-8.55,-0.06,-0.02,-0.01,Z
191,232,4,2,21,-0.22,1.21,-8.80,-0.05,-0.00,-0.00,Z
190,233,5,3,22,-0.29,1.20,-8.67,-0.06,-0.01,0.02,Z
188,232,2,3,21,-0.40,1.24,-8.67,-0.03,-0.01,-0.00,Z
191,230,2,4,22,-0.33,1.19,-8.71,0.00,0.03,0.01,Z
191,232,2,2,21,-0.26,1.22,-8.58,-0.03,0.03,-0.00,Z
183,227,2,1,15,4.06,8.77,4.52,0.17,0.15,0.05,1
182,228,3,0,15,4.37,8.41,4.23,0.20,0.10,-0.12,1
182,228,0,1,14,3.77,8.85,3.92,0.15,0.03,0.08,1
181,226,1,1,15,4.30,8.56,3.42,-0.05,-0.06,-0.09,1
181,228,1,0,16,3.92,9.01,4.00,-0.01,0.01,0.03,1
182,227,1,1,15,4.09,8.70,4.00,-0.06,-0.01,-0.01,1
182,228,1,2,15,4.19,8.67,3.94,-0.09,-0.04,0.05,1
181,227,1,1,16,4.21,8.57,4.05,-0.04,-0.06,0.03,1
182,225,2,1,16,4.19,8.62,4.07,-0.03,-0.04,-0.04,1
181,227,1,1,15,4.13,8.63,4.06,-0.03,-0.05,-0.01,1
180,228,0,0,15,4.05,8.56,4.06,-0.02,-0.02,0.01,1
180,227,2,2,16,4.32,8.58,4.00,-0.03,-0.05,0.01,1
179,226,1,1,16,4.08,8.53,4.04,-0.04,-0.06,0.01,1
180,227,1,1,15,4.39,8.57,4.19,0.01,-0.02,-0.01,1
184,226,0,1,16,4.13,8.56,4.06,-0.01,-0.03,-0.00,1
181,227,1,1,15,4.21,8.58,4.09,-0.01,0.01,0.00,1
183,227,2,1,16,4.05,8.66,4.09,-0.02,0.03,-0.01,1
185,226,2,1,16,3.84,8.67,4.14,-0.02,0.03,-0.01,1
183,228,1,2,15,4.00,8.60,4.07,0.01,0.05,0.01,1
182,228,2,2,16,4.11,8.65,4.22,0.03,0.10,0.00,1
181,226,1,1,17,4.14,8.65,4.05,-0.04,0.00,0.00,1
182,227,1,0,15,4.05,8.65,4.13,-0.00,0.17,0.00,1
183,227,1,0,15,3.82,8.65,4.38,0.01,0.24,0.00,1
182,227,0,1,15,3.54,8.67,4.44,-0.03,0.06,0.03,1
183,227,1,1,15,3.32,8.67,4.56,-0.06,0.03,0.02,1
182,227,3,2,16,3.35,8.71,4.69,-0.01,-0.20,-0.00,1
183,228,0,1,16,3.50,8.76,4.58,-0.06,-0.34,-0.02,1
183,227,1,2,16,3.74,8.64,4.36,-0.07,-0.25,0.01,1
185,227,0,1,16,3.81,8.64,4.40,-0.03,-0.12,-0.02,1
183,227,2,1,14,3.82,8.66,4.22,-0.04,-0.39,0.01,1
183,227,1,2,16,4.28,8.66,3.92,-0.08,-0.15,-0.01,1
184,226,1,2,17,4.23,8.62,4.10,0.00,-0.03,-0.03,1
183,227,2,1,17,4.04,8.61,4.06,-0.03,-0.02,0.01,1
183,228,1,1,15,4.12,8.66,4.02,-0.02,-0.00,-0.02,1
182,227,0,1,15,4.02,8.62,3.97,-0.04,0.05,-0.03,1
184,227,1,0,15,4.10,8.56,3.96,-0.01,0.15,0.00,1
184,228,1,1,16,4.13,8.63,4.22,-0.05,0.14,-0.02,1
183,227,2,1,16,3.73,8.68,4.36,0.00,0.00,0.02,1
184,228,1,2,15,3.57,8.79,4.48,-0.05,0.05,-0.02,1
182,226,1,1,15,3.56,8.73,4.61,-0.08,-0.09,-0.01,1
184,226,1,2,16,3.74,8.43,4.73,-0.04,-0.02,0.03,1
184,227,2,1,16,3.48,8.69,4.58,-0.04,0.00,0.01,1
181,226,1,1,15,3.98,8.57,4.60,0.00,-0.03,0.02,1
184,227,2,1,14,3.75,8.58,4.56,-0.02,-0.06,0.02,1
183,228,1,0,16,3.72,8.56,4.57,-0.03,-0.03,-0.01,1
185,226,2,0,15,3.80,8.55,4.52,-0.02,-0.01,0.01,1
183,228,1,2,15,3.58,8.70,4.64,-0.02,-0.08,-0.03,1
184,228,2,1,16,3.50,8.60,4.41,-0.03,-0.22,0.10,1
183,229,1,1,17,3.67,8.66,4.55,0.09,0.10,0.00,1
185,226,1,0,16,4.23,8.49,4.29,-0.00,0.03,0.09,1
186,227,3,1,15,3.92,8.56,4.43,-0.01,0.02,-0.02,1
184,228,2,1,14,4.17,8.82,4.47,0.02,0.01,0.03,1
184,229,0,1,15,4.27,8.47,3.81,0.05,-0.12,0.11,1
185,230,2,1,16,4.50,8.37,4.26,-0.06,-0.04,0.03,1
186,227,3,0,15,4.36,8.49,4.35,-0.07,-0.09,0.03,1
184,228,1,1,15,4.48,8.47,4.40,0.00,0.00,0.01,1
186,229,1,1,17,4.43,8.44,4.38,-0.06,0.02,0.04,1
185,227,1,2,16,4.68,8.35,4.32,-0.03,0.01,0.02,1
185,227,0,2,16,4.61,8.30,4.20,0.02,0.02,0.02,1
186,227,2,2,16,4.59,8.47,4.47,-0.03,-0.02,-0.05,1
185,228,0,1,15,4.42,8.43,4.21,-0.02,-0.02,0.00,1
184,228,0,1,15,4.59,8.41,4.32,-0.03,0.01,-0.03,1
186,227,3,1,17,4.23,8.48,4.36,-0.02,-0.04,-0.03,1
187,228,2,1,16,4.57,8.38,4.23,0.02,0.09,-0.04,1
187,226,1,2,16,4.07,8.50,4.26,-0.03,-0.01,-0.04,1
185,228,2,1,15,4.18,8.54,4.34,-0.02,-0.04,-0.02,1
185,227,1,1,16,4.16,8.49,4.30,-0.02,-0.03,-0.01,1
187,227,1,1,16,4.19,8.51,4.17,-0.02,-0.02,-0.05,1
185,228,3,1,17,4.01,8.58,4.30,-0.03,-0.04,-0.03,1
185,228,2,0,15,4.10,8.55,4.19,-0.02,-0.00,0.01,1
188,231,3,3,17,3.94,8.64,4.37,-0.03,-0.00,-0.02,1
186,228,1,2,15,3.87,8.63,4.28,-0.03,-0.05,0.01,1
186,229,0,1,16,3.98,8.59,4.36,-0.01,0.01,-0.00,1
186,228,0,1,16,4.01,8.58,4.26,-0.01,0.02,-0.00,1
187,227,1,0,17,3.95,8.60,4.26,-0.00,-0.01,-0.02,1
186,227,2,0,16,3.85,8.62,4.31,-0.02,-0.04,-0.02,1
185,227,1,1,17,3.89,8.61,4.28,-0.03,-0.01,-0.01,1
185,228,2,2,15,3.82,8.65,4.29,-0.02,-0.03,-0.01,1
185,228,1,1,15,3.84,8.65,4.24,-0.03,-0.06,-0.02,1
185,230,1,1,16,3.85,8.61,4.26,-0.01,-0.06,-0.01,1
185,227,1,1,16,3.79,8.68,4.30,-0.02,-0.06,-0.00,1
185,227,2,1,16,3.77,8.69,4.20,-0.02,-0.04,0.00,1
185,228,3,1,15,3.87,8.68,4.23,-0.02,-0.05,0.02,1
185,228,2,1,15,3.93,8.66,4.16,-0.05,-0.01,0.00,1
185,229,1,2,17,3.93,8.66,4.14,-0.03,0.00,0.00,1
186,228,1,1,15,3.85,8.70,4.23,-0.04,0.01,-0.01,1
186,228,1,1,16,3.95,8.64,4.21,-0.02,-0.01,-0.00,1
186,229,1,2,16,3.92,8.67,4.21,-0.02,-0.03,-0.01,1
185,227,1,2,16,3.84,8.66,4.22,-0.03,0.00,-0.01,1
186,228,2,1,15,3.92,8.65,4.18,-0.01,-0.01,0.01,1
185,227,2,1,15,3.73,8.73,4.23,-0.03,-0.03,0.01,1
184,231,5,0,16,5.15,8.39,3.09,0.00,0.04,0.03,2
185,230,5,1,16,5.18,8.37,3.07,-0.04,0.03,0.00,2
185,231,5,0,16,5.08,8.48,3.25,0.02,0.04,-0.01,2
186,230,5,2,16,5.08,8.43,3.08,0.02,0.03,-0.01,2
184,231,5,1,15,5.07,8.37,3.03,-0.05,-0.08,-0.00,2
186,232,3,2,15,5.13,8.42,3.14,-0.05,-0.06,0.03,2
185,236,5,3,16,5.01,8.52,3.17,-0.01,-0.02,-0.04,2
183,231,5,0,15,4.91,8.53,3.21,0.01,-0.05,-0.01,2
181,233,4,0,17,4.88,8.50,3.15,-0.03,0.00,0.01,2
179,234,4,0,15,4.98,8.42,3.17,-0.02,-0.07,0.02,2
181,231,5,0,16,5.05,8.44,3.18,-0.02,-0.08,0.02,2
182,232,4,1,16,4.92,8.39,3.15,-0.02,0.05,0.00,2
182,231,4,1,15,5.09,8.40,3.11,-0.01,-0.05,0.01,2
182,231,4,1,15,4.95,8.45,3.18,-0.03,-0.04,0.01,2
182,232,6,1,15,5.13,8.39,3.21,-0.03,0.01,0.03,2
182,231,4,0,15,5.08,8.39,3.23,-0.02,-0.02,-0.00,2
183,231,5,1,15,5.03,8.41,3.15,0.01,-0.03,-0.00,2
185,233,5,1,15,4.99,8.36,3.14,0.00,-0.05,0.01,2
185,232,5,1,17,5.12,8.35,2.99,-0.01,0.02,-0.05,2
184,232,3,1,15,4.95,8.39,3.05,-0.03,0.05,-0.02,2
179,236,4,1,15,5.19,8.33,3.02,-0.07,0.05,0.04,2
182,231,4,1,14,5.08,8.36,3.24,-0.00,-0.10,-0.01,2
182,231,4,0,15,5.05,8.38,3.14,-0.06,-0.01,0.03,2
181,231,5,1,15,5.21,8.34,3.16,-0.03,-0.02,0.01,2
183,232,4,2,16,5.13,8.32,3.24,0.00,-0.06,-0.02,2
181,231,5,1,16,5.18,8.30,3.07,-0.04,-0.01,-0.01,2
181,231,4,1,16,5.17,8.42,3.31,-0.03,-0.05,-0.04,2
182,232,5,3,16,5.10,8.39,3.28,-0.00,0.01,0.01,2
180,233,4,1,14,5.08,8.29,3.14,-0.05,0.01,-0.05,2
182,232,5,1,15,4.88,8.47,3.25,0.01,-0.01,-0.01,2
183,232,4,1,16,4.81,8.47,3.35,-0.02,-0.03,0.04,2
182,231,5,1,15,4.99,8.36,3.26,0.04,0.07,0.09,2
184,231,5,2,15,5.11,8.32,3.30,0.10,0.15,0.09,2
183,232,5,1,16,5.50,8.17,3.19,0.11,0.08,0.16,2
185,232,5,0,15,5.58,8.14,2.91,-0.01,-0.00,0.07,2
184,232,4,2,17,5.55,8.14,3.03,-0.06,-0.08,-0.06,2
184,233,5,0,15,5.58,8.27,3.17,-0.07,-0.08,-0.01,2
177,230,6,1,16,5.33,8.31,3.20,-0.09,-0.03,-0.12,2
185,231,5,1,16,5.17,8.34,3.18,-0.08,-0.09,-0.05,2
185,232,4,3,16,5.13,8.31,3.11,-0.03,-0.05,-0.04,2
187,230,6,2,17,5.26,8.32,3.20,0.00,0.07,0.01,2
185,231,5,1,16,4.87,8.62,2.97,-0.12,-0.07,-0.08,2
186,232,5,2,16,5.05,8.24,2.97,0.02,-0.03,0.07,2
186,233,4,1,16,5.09,8.37,3.38,-0.03,-0.05,0.06,2
187,232,4,2,17,4.99,8.42,3.14,-0.01,-0.03,0.07,2
186,232,5,1,15,5.84,8.39,3.31,0.06,-0.00,0.15,2
187,232,4,1,17,5.58,8.17,3.09,-0.08,-0.05,-0.04,2
188,232,4,1,15,5.37,8.15,3.09,-0.01,-0.03,-0.01,2
186,231,5,0,15,5.55,8.24,3.05,-0.00,-0.04,-0.00,2
188,233,4,1,16,5.45,8.36,2.72,0.01,-0.08,-0.05,2
186,232,4,1,15,5.04,8.32,3.41,-0.01,-0.04,0.01,2
191,231,4,1,15,5.22,8.31,3.22,-0.01,-0.03,0.01,2
188,233,4,1,17,5.25,8.32,3.07,-0.01,-0.06,0.03,2
186,233,5,0,15,5.43,8.28,3.15,-0.00,0.01,0.01,2
190,231,4,2,17,5.33,8.28,3.06,-0.04,0.00,0.02,2
188,232,5,1,15,5.34,8.23,3.15,-0.05,-0.02,0.01,2
188,231,4,0,16,5.32,8.03,3.27,-0.10,-0.06,0.03,2
188,233,6,1,16,5.47,8.04,3.01,-0.06,-0.01,-0.03,2
188,231,4,1,16,5.47,8.22,3.36,-0.08,-0.01,-0.00,2
189,232,5,0,15,5.22,8.32,3.22,0.01,0.03,-0.04,2
188,232,5,0,16,5.16,8.17,3.22,0.01,-0.00,0.04,2
188,233,4,1,15,5.31,8.06,3.19,-0.04,-0.03,-0.06,2
188,235,5,1,15,5.28,8.27,3.15,-0.05,-0.04,-0.03,2
189,232,5,1,16,5.17,8.29,3.19,-0.01,-0.04,0.00,2
189,232,5,1,17,5.25,8.30,3.23,-0.01,-0.04,-0.01,2
189,233,4,1,16,5.30,8.31,3.29,-0.01,-0.00,0.01,2
189,232,4,1,16,5.26,8.30,3.24,-0.04,-0.02,-0.01,2
190,233,6,0,17,5.17,8.37,3.28,-0.04,0.02,-0.01,2
190,231,4,1,16,5.37,8.30,3.27,-0.02,0.00,-0.01,2
191,233,6,2,17,5.04,8.38,3.25,-0.03,-0.02,0.00,2
191,232,5,1,16,5.15,8.37,3.25,-0.02,-0.03,0.03,2
243,232,4,2,16,3.16,8.88,4.23,0.03,0.08,0.03,3
244,233,5,1,15,2.90,9.02,4.30,0.02,0.07,0.02,3
243,233,4,1,15,3.04,8.91,4.03,-0.02,0.04,-0.00,3
243,234,6,1,15,3.01,9.03,4.32,0.03,-0.02,0.01,3
243,233,4,1,17,2.53,9.11,4.12,0.02,-0.04,-0.03,3
243,232,5,2,16,3.11,9.03,4.21,-0.09,0.03,0.01,3
243,234,6,2,16,3.01,9.00,4.06,-0.01,0.05,0.02,3
244,233,5,1,16,2.92,9.03,4.20,-0.03,-0.02,-0.01,3
244,233,6,1,16,3.05,8.95,4.05,-0.01,0.05,0.01,3
243,233,5,1,15,2.94,8.99,4.19,-0.02,0.00,0.00,3
244,233,5,2,15,2.96,9.05,4.23,-0.03,-0.03,-0.00,3
243,233,4,3,16,2.87,9.00,4.17,-0.01,-0.02,0.01,3
243,234,4,2,16,2.94,8.95,4.20,-0.03,-0.01,-0.00,3
243,233,4,1,16,2.95,9.00,4.22,-0.03,0.02,-0.00,3
243,233,5,1,16,3.01,9.03,4.24,-0.02,0.06,0.00,3
242,233,5,1,16,3.03,8.98,4.30,-0.00,-0.05,0.00,3
244,235,5,1,15,2.94,8.99,4.21,0.01,-0.02,0.01,3
243,234,5,2,15,2.83,8.87,4.26,0.01,-0.03,0.04,3
243,233,4,2,17,3.04,8.95,4.17,0.00,-0.02,-0.01,3
244,233,4,2,17,2.99,9.00,4.08,-0.01,-0.03,-0.00,3
244,233,6,1,16,2.97,9.01,4.13,0.01,-0.00,-0.01,3
243,233,4,2,17,2.84,8.96,4.03,0.00,-0.01,0.01,3
243,233,5,1,16,2.93,9.09,4.05,0.08,0.10,0.03,3
242,234,4,1,16,2.85,9.14,3.94,0.12,0.13,0.10,3
243,234,5,1,15,3.05,9.07,3.53,0.14,0.07,0.17,3
243,235,5,1,16,3.49,9.14,3.58,0.11,0.17,0.21,3
243,234,5,2,16,3.92,8.98,3.10,0.06,0.08,0.07,3
243,233,4,3,16,3.74,8.97,3.30,-0.03,-0.01,-0.04,3
243,232,5,2,15,3.48,9.04,3.30,-0.05,-0.04,-0.06,3
244,233,5,1,16,3.48,9.10,3.26,-0.04,-0.06,-0.04,3
238,233,4,1,15,3.31,9.08,3.37,-0.10,-0.05,-0.11,3
243,233,5,2,16,3.11,9.11,3.63,-0.10,-0.08,-0.09,3
244,233,6,2,16,2.97,9.15,3.64,-0.05,-0.09,-0.06,3
243,227,4,2,16,2.88,9.18,3.72,-0.03,-0.01,0.01,3
242,234,5,1,16,2.98,9.11,3.73,-0.05,0.02,-0.03,3
244,234,6,1,16,3.05,9.13,3.74,-0.01,-0.01,0.02,3
244,237,4,1,16,2.98,9.06,3.75,-0.04,-0.05,0.01,3
243,233,4,1,16,3.06,9.18,3.55,-0.05,-0.03,0.00,3
243,233,4,1,16,3.15,9.08,3.77,0.00,0.10,0.05,3
244,235,5,1,16,3.28,9.13,3.71,0.00,0.05,0.06,3
244,233,5,1,15,3.48,9.01,3.68,0.02,0.03,0.05,3
244,233,5,1,15,3.45,9.10,3.67,0.03,-0.01,0.09,3
243,234,3,2,15,3.37,9.09,3.61,-0.01,-0.02,0.04,3
244,234,6,1,16,3.75,8.87,3.59,0.03,0.01,0.10,3
246,233,6,1,16,3.58,8.89,3.61,-0.03,-0.01,-0.02,3
244,234,4,1,16,3.58,9.06,3.71,-0.01,0.02,-0.02,3
244,233,4,1,17,3.38,9.03,3.73,-0.01,0.01,-0.04,3
244,234,5,1,16,3.32,9.02,3.64,-0.04,0.00,-0.03,3
244,234,5,1,15,3.45,9.04,3.65,0.01,0.00,-0.01,3
243,233,4,2,16,3.14,9.09,3.70,-0.07,-0.05,-0.03,3
244,235,4,3,15,3.37,9.02,3.81,0.01,0.04,0.01,3
244,233,4,1,15,3.63,9.07,3.67,-0.04,-0.04,0.02,3
243,233,5,3,16,3.23,9.02,3.63,-0.02,-0.02,-0.01,3
243,233,4,2,16,3.53,9.00,3.64,0.04,-0.10,0.01,3
242,233,4,1,15,3.39,9.13,3.59,-0.00,-0.04,0.01,3
244,234,5,1,15,3.37,9.05,3.65,-0.02,-0.01,-0.02,3
244,234,4,1,18,3.54,8.99,3.57,0.02,-0.04,0.01,3
243,233,4,1,16,3.25,9.04,3.59,-0.07,-0.02,-0.06,3
244,234,4,2,16,3.33,9.15,3.57,0.02,0.01,-0.01,3
244,234,5,1,15,3.23,9.08,3.60,0.01,0.05,-0.05,3
244,234,5,0,15,3.30,9.10,3.50,-0.03,-0.02,-0.01,3
245,234,5,2,16,3.00,9.06,3.60,-0.09,-0.05,-0.03,3
243,234,4,1,16,3.11,9.13,3.49,-0.02,-0.05,-0.02,3
244,232,4,2,16,2.97,9.06,3.66,-0.04,-0.02,0.06,3
243,235,6,1,16,3.22,9.01,3.38,-0.03,0.02,0.00,3
244,233,5,0,15,3.09,9.02,3.88,-0.07,-0.05,-0.01,3
244,233,4,1,16,3.19,9.04,3.46,-0.01,-0.00,0.00,3
245,237,5,2,17,3.23,9.06,3.54,0.01,-0.01,0.00,3
243,234,4,1,16,3.12,9.12,3.73,-0.05,-0.04,-0.01,3
243,233,4,1,16,3.13,9.16,3.56,-0.03,0.04,-0.02,3
243,234,5,3,16,3.23,9.09,3.59,0.00,-0.01,0.02,3
243,234,5,1,15,3.15,9.15,3.66,-0.01,-0.02,-0.01,3
244,234,5,1,16,3.20,9.11,3.61,-0.02,-0.04,0.03,3
242,234,5,1,15,3.09,9.16,3.54,-0.03,-0.02,-0.00,3
243,234,4,1,16,3.16,9.15,3.58,-0.02,-0.03,0.00,3
243,234,4,0,15,3.24,9.14,3.70,-0.03,0.05,0.00,3
244,234,4,1,16,3.40,9.02,3.50,-0.03,-0.04,-0.01,3
244,234,4,1,17,3.05,9.14,3.80,-0.02,-0.02,-0.03,3
240,235,4,1,16,3.43,9.06,3.36,-0.01,0.03,0.01,3
244,233,5,1,15,3.05,9.03,3.81,-0.12,-0.13,-0.10,3
243,233,4,1,16,3.10,8.99,3.47,-0.04,-0.04,0.01,3
244,237,3,2,16,2.99,9.19,3.85,-0.07,-0.09,0.01,3
244,234,5,1,15,3.19,9.11,3.72,-0.01,-0.04,0.04,3
244,232,5,1,15,3.24,9.10,3.63,-0.00,0.03,0.04,3
244,233,5,1,15,3.22,9.09,3.75,-0.02,0.02,-0.00,3
244,234,5,1,16,3.23,9.04,3.66,-0.04,-0.00,0.01,3
244,233,4,1,16,3.22,9.05,3.69,-0.04,-0.00,-0.01,3
244,234,4,1,17,3.14,9.10,3.76,-0.02,-0.05,0.01,3
243,232,3,5,17,3.36,8.99,3.81,-0.01,-0.02,0.01,4
242,232,4,4,16,3.20,9.05,3.84,0.04,-0.06,0.00,4
243,233,4,6,17,3.39,9.00,3.90,-0.06,-0.04,-0.01,4
242,230,6,4,16,3.31,9.07,3.66,0.02,-0.08,0.00,4
243,231,4,4,17,3.34,9.10,3.69,-0.04,-0.07,0.01,4
243,232,4,4,17,3.09,9.17,3.55,0.03,0.01,-0.01,4
243,232,5,6,17,3.59,9.10,3.47,-0.02,-0.08,0.04,4
243,231,3,4,16,3.46,9.02,3.62,-0.06,-0.06,-0.11,4
243,231,5,4,15,3.08,9.10,3.52,-0.02,-0.09,-0.01,4
242,232,4,5,16,3.24,9.08,3.69,-0.03,-0.01,-0.02,4
244,232,5,5,17,3.15,9.07,3.67,-0.03,-0.08,-0.03,4
243,232,5,4,17,3.07,9.10,3.74,-0.03,-0.03,-0.02,4
244,233,6,5,18,3.09,9.09,3.73,0.04,-0.04,0.00,4
243,231,5,5,17,2.92,9.20,3.41,-0.04,-0.07,0.03,4
244,231,5,5,17,3.13,9.12,3.48,-0.03,-0.05,0.05,4
243,232,6,5,18,3.18,9.14,3.55,-0.03,-0.01,-0.01,4
243,232,4,5,17,3.04,9.11,3.49,-0.02,-0.03,0.00,4
244,233,4,4,16,2.89,9.11,3.45,-0.03,-0.00,-0.06,4
242,232,4,5,16,2.94,9.12,3.56,-0.00,-0.01,0.02,4
243,232,4,4,17,2.83,9.16,3.59,-0.04,-0.00,0.00,4
244,233,4,4,17,3.12,9.14,3.53,-0.05,-0.08,0.03,4
242,233,4,5,18,2.94,9.16,3.58,-0.04,-0.03,0.00,4
243,233,5,5,16,3.18,9.05,3.55,-0.14,-0.19,0.08,4
243,234,5,4,17,3.31,9.07,4.04,-0.05,-0.11,0.10,4
243,233,6,5,18,3.59,8.90,3.94,-0.02,-0.02,0.02,4
243,234,4,6,18,3.42,8.94,3.92,-0.02,-0.03,-0.00,4
244,233,5,5,17,3.40,8.90,3.75,-0.01,-0.05,0.04,4
243,233,5,5,17,3.73,8.89,3.82,0.02,-0.01,0.02,4
243,234,5,4,17,3.59,8.93,3.80,-0.01,0.08,-0.01,4
243,235,4,5,17,3.51,8.73,3.84,-0.03,0.01,-0.02,4
243,234,5,6,17,3.49,8.95,3.98,-0.09,-0.06,0.02,4
243,236,4,5,17,3.51,8.84,4.10,-0.01,-0.00,-0.00,4
244,233,4,5,18,3.62,8.85,3.88,-0.02,-0.03,0.00,4
244,232,5,4,17,3.46,8.68,4.11,-0.03,-0.01,-0.01,4
243,234,5,4,17,3.90,8.77,3.79,-0.02,-0.00,0.01,4
245,233,4,4,17,3.39,8.96,4.04,0.01,0.00,-0.02,4
244,233,5,5,17,3.70,8.86,3.79,-0.01,-0.06,0.01,4
243,233,4,4,17,3.55,8.88,3.83,-0.01,0.02,0.01,4
244,232,4,4,17,3.68,8.85,3.78,-0.05,-0.04,-0.01,4
244,233,5,5,17,3.63,8.89,3.92,-0.02,0.04,0.02,4
243,234,5,6,17,3.56,9.01,3.91,-0.03,-0.06,-0.05,4
243,233,5,5,17,3.55,8.78,3.84,-0.02,0.06,0.04,4
244,233,6,5,18,3.83,8.66,3.76,-0.05,-0.10,0.11,4
244,233,5,6,18,3.34,8.98,4.18,-0.06,0.03,-0.00,4
243,234,4,5,18,4.10,8.70,3.79,-0.01,0.00,0.03,4
243,233,4,5,19,3.53,8.93,4.17,0.02,0.09,-0.09,4
245,233,5,5,17,3.28,8.97,4.06,0.05,0.03,0.03,4
244,234,7,5,18,3.58,8.95,4.09,-0.14,-0.04,-0.10,4
244,234,4,5,16,3.46,8.81,4.11,0.03,0.04,0.02,4
244,233,4,5,18,3.33,8.82,3.96,-0.04,0.02,0.07,4
245,233,5,3,18,3.42,8.71,3.92,-0.03,0.01,-0.04,4
244,232,5,5,18,3.31,9.04,4.18,0.06,0.05,0.04,4
244,233,4,5,19,3.23,8.95,4.59,-0.04,0.06,-0.03,4
244,233,4,5,16,3.35,8.83,4.07,0.00,0.05,-0.04,4
244,234,6,5,18,3.42,8.76,3.82,-0.10,-0.05,-0.01,4
245,233,4,4,19,3.40,8.91,4.17,-0.02,-0.06,0.01,4
244,235,4,5,18,3.26,8.91,4.31,-0.08,-0.07,-0.01,4
244,233,5,7,17,3.42,8.79,4.17,0.01,-0.06,0.01,4
244,233,5,5,18,3.20,8.95,4.38,-0.09,-0.09,0.05,4
243,232,5,5,18,3.28,8.93,4.32,0.01,0.01,-0.01,4
243,232,4,5,17,3.40,8.86,4.51,-0.02,-0.09,0.02,4
245,232,5,6,18,3.19,9.00,4.43,-0.02,0.06,-0.02,4
245,226,5,6,17,3.43,8.83,4.31,-0.09,-0.01,0.06,4
244,233,5,5,19,3.24,8.91,4.62,0.07,0.01,0.04,4
243,233,7,5,18,3.54,8.76,4.40,-0.04,-0.05,-0.01,4
244,231,5,5,19,3.45,8.81,4.27,-0.00,0.05,-0.02,4
244,232,5,5,18,3.45,8.77,4.21,-0.00,-0.01,0.01,4
244,232,5,5,17,3.39,8.85,4.39,-0.00,-0.03,0.01,4
244,233,6,5,17,3.35,8.70,4.15,-0.03,0.02,-0.01,4
244,233,5,4,17,3.42,8.81,4.07,-0.01,-0.05,0.04,4
243,232,5,6,17,3.37,8.86,4.42,-0.12,-0.10,-0.04,4
244,233,4,5,18,3.58,8.57,4.14,0.06,0.01,0.11,4
244,232,5,4,17,3.39,8.86,4.27,-0.05,-0.07,-0.02,4
247,234,5,6,15,3.39,8.82,4.31,-0.10,-0.17,0.02,4
243,232,5,5,17,3.76,9.03,4.69,0.08,0.01,0.14,4
245,232,6,5,16,3.76,8.79,4.27,0.02,0.05,0.03,4
244,233,4,5,16,3.75,8.79,4.02,0.04,0.02,-0.04,4
244,233,4,5,17,3.71,9.06,4.17,-0.01,0.01,0.06,4
244,233,4,5,16,3.47,8.81,4.28,-0.10,-0.03,-0.01,4
245,234,6,5,16,3.97,8.62,4.29,0.03,0.06,-0.01,4
244,233,5,5,16,4.16,8.34,3.35,0.01,-0.27,-0.05,4
245,233,4,5,13,3.38,8.83,3.82,-0.07,-0.34,0.03,4
244,234,4,5,13,3.83,8.77,3.92,-0.10,0.02,0.04,4
244,233,4,4,13,3.92,8.68,4.23,-0.06,-0.01,-0.02,4
244,233,4,5,13,3.74,8.79,4.32,-0.03,-0.05,0.02,4
244,233,4,4,12,3.83,8.71,4.10,-0.06,-0.14,0.03,4
244,233,4,5,13,3.89,8.70,4.09,0.16,0.13,0.04,4
243,231,5,4,17,3.74,8.82,4.25,0.01,-0.04,-0.02,4
244,233,5,4,15,3.60,8.69,3.87,-0.00,-0.02,-0.01,4
244,234,5,6,17,3.49,8.84,4.04,-0.05,-0.09,0.00,4
242,233,5,6,17,3.48,8.84,4.11,-0.04,-0.08,-0.03,4
244,233,3,5,17,3.84,8.84,3.94,-0.03,-0.07,0.04,4
244,233,5,5,18,3.50,8.87,4.12,-0.04,-0.05,-0.03,4
244,233,5,7,17,3.33,8.77,4.35,-0.09,-0.01,-0.06,4
245,232,5,5,18,3.52,8.75,4.03,0.01,-0.08,-0.01,4
244,232,5,6,17,3.39,8.86,4.11,0.01,0.00,0.01,4
245,233,5,5,17,3.35,8.87,4.19,-0.03,-0.03,-0.00,4
244,233,5,4,17,3.54,8.83,4.08,0.01,0.03,0.03,4
244,231,4,4,16,3.43,8.88,4.20,-0.01,0.04,-0.04,4
245,233,6,5,19,3.39,8.83,3.94,-0.03,-0.01,0.00,4
244,233,6,5,18,3.37,8.88,4.07,-0.04,0.01,0.03,4
244,233,4,4,17,3.39,8.88,4.00,-0.04,-0.05,0.08,4
245,233,6,6,16,3.68,8.81,4.14,-0.01,-0.04,0.01,4
244,233,4,5,18,3.60,8.83,4.00,-0.02,-0.03,-0.01,4
239,227,5,6,31,-1.48,5.13,-7.21,0.03,-0.00,-0.03,HALO
238,227,4,5,32,-1.45,5.22,-7.26,0.04,-0.01,0.00,HALO
237,230,6,5,32,-1.41,5.07,-7.17,-0.02,0.01,-0.01,HALO
238,228,4,5,31,-1.37,5.15,-7.23,-0.03,-0.01,0.03,HALO
238,227,6,5,32,-1.42,5.12,-7.27,-0.04,-0.04,-0.00,HALO
238,229,4,5,32,-1.31,5.17,-7.18,-0.03,0.01,0.03,HALO
238,228,5,5,31,-1.37,5.22,-7.21,-0.01,-0.02,0.03,HALO
237,227,5,5,32,-1.39,5.25,-7.05,-0.02,0.02,0.02,HALO
238,228,4,6,31,-1.07,5.06,-7.24,0.18,0.10,0.06,HALO
238,227,6,5,30,-0.73,4.72,-7.51,0.10,0.00,0.04,HALO
238,226,5,6,31,-0.91,4.74,-7.50,0.00,-0.02,-0.01,HALO
237,228,5,4,31,-0.96,4.88,-7.26,-0.35,-0.00,-0.10,HALO
237,228,5,5,31,-1.00,5.75,-6.85,-0.40,0.07,-0.16,HALO
240,229,5,6,31,-1.07,5.90,-6.74,-0.05,-0.03,0.02,HALO
236,226,5,4,31,-3.87,6.57,-5.68,-0.19,-0.54,0.49,HALO
237,227,5,4,31,2.48,2.63,-9.12,1.12,0.17,2.02,HALO
236,228,4,5,30,4.18,3.21,-8.57,-0.24,0.02,-0.16,HALO
237,228,3,4,31,1.81,4.20,-7.55,-0.67,-0.36,-0.91,HALO
238,227,4,7,30,-0.69,5.18,-7.32,-0.40,-0.16,-0.95,HALO
239,228,5,5,32,-1.84,5.86,-6.00,-0.40,0.02,-0.56,HALO
237,228,5,4,30,-2.74,6.24,-6.19,-0.15,-0.05,-0.19,HALO
239,227,6,5,31,-2.28,6.05,-5.94,0.36,0.23,0.72,HALO
236,228,5,5,32,0.14,4.98,-7.29,0.59,0.28,0.82,HALO
238,228,7,5,32,2.75,3.56,-8.08,0.43,0.15,1.04,HALO
238,228,4,5,30,4.28,3.49,-8.40,-0.28,-0.06,-0.23,HALO
237,228,5,5,31,1.73,4.20,-7.44,-0.51,-0.55,-1.02,HALO
238,228,4,5,30,-1.33,5.34,-6.67,-0.59,-0.24,-1.14,HALO
238,228,5,6,31,-2.95,6.15,-6.04,-0.16,-0.21,-0.23,HALO
239,228,6,5,32,-2.68,6.12,-6.02,0.04,0.14,0.25,HALO
238,228,4,5,32,-2.04,5.69,-6.36,0.57,0.35,1.07,HALO
237,229,4,5,30,1.04,4.46,-7.09,0.76,0.42,1.33,HALO
238,228,5,5,31,4.50,2.56,-8.92,0.26,0.32,0.66,HALO
237,228,5,6,30,3.81,3.23,-8.07,-0.17,-0.18,-0.23,HALO
242,228,4,5,30,3.18,3.57,-8.31,-0.40,-0.28,-0.83,HALO
238,229,6,5,31,0.28,4.90,-7.28,-0.35,-0.19,-1.15,HALO
238,229,3,6,31,-1.87,5.51,-6.29,-0.33,-0.16,-0.76,HALO
239,228,5,5,32,-1.75,5.67,-6.57,-0.17,-0.23,-0.32,HALO
236,228,4,6,31,-2.68,5.74,-6.55,-0.16,-0.21,0.10,HALO
238,228,4,5,30,-2.49,5.79,-6.63,0.05,0.06,0.77,HALO
238,228,5,5,30,-0.53,5.87,-6.41,0.34,0.10,1.07,HALO
237,228,5,6,31,2.20,4.51,-7.65,0.54,0.15,0.90,HALO
237,228,5,5,31,3.38,4.12,-8.12,-0.07,0.03,0.14,HALO
238,228,5,4,31,2.45,4.48,-7.79,-0.26,-0.31,-0.61,HALO
237,228,5,5,32,-0.10,5.46,-6.86,-0.53,-0.32,-1.11,HALO
238,228,5,6,31,-2.65,6.10,-5.71,-0.59,-0.07,-0.94,HALO
